{
  "resourceType": "Bundle",
  "id": "b49df1b2-b717-4d81-a140-7f16a334999b",
  "meta": {
    "lastUpdated": "2016-07-13T11:55:33+10:00"
  },
  "identifier": {
    "system": "urn:ietf:rfc:3986",
    "value": "urn:uuid:fcb6b07b-4e0c-4ec6-94c2-00b744ffbb23"
  },
  "type": "document",
  "timestamp": "2016-07-13T11:55:33+10:00",
  "entry": [
    {
      "fullUrl": "urn:uuid:f6287b69-19ab-4747-a568-5e1e4ad5d0d1",
      "resource": {
        "resourceType": "Composition",
        "id": "f6287b69-19ab-4747-a568-5e1e4ad5d0d1",
        "meta": {
          "lastUpdated": "2016-07-13T11:55:33+10:00",
          "profile": [
            "http://ns.electronichealth.net.au/ci/fhir/4.0/StructureDefinition/composition-pathreport-1"
          ]
        },
        "language": "en-AU",
        "text": {
          "status": "generated",
          "div": "<div xmlns=\"http://www.w3.org/1999/xhtml\" lang=\"en-AU\">\n                        <table style=\"border-collapse:collapse;border-spacing:0;width:100%;background-color:#000000\">\n                            <tr>\n                                <th colspan=\"9\" style=\"padding-top: 40px;                                     vertical-align: top;                                     text-align: center;                                     margin 0px;                                     font-size: 20px;                                     font-family: Helvetica;                                     color: #FFFFFF;                                     font-weight: bold;                                     word-wrap: break-word;\">Pathology Report</th>\n                            </tr>\n                            <tr>\n                                <td colspan=\"9\" style=\"vertical-align: top;                                     text-align: center;                                     margin 0px;                                     font-size: 15px;                                     font-family: Helvetica;                                     color: #FFFFFF;                                     font-weight: bold;\">13 July 2016 11:45</td>\n                            </tr>\n                            <tr>\n                                <td style=\"display: inline;                                      margin-right: 20px;                                      font-size: 13px;                                     color: #FFFFFF;\">Mrs. Anne <span class=\"bold\">THOMPSON</span></td>\n                                <td style=\"display: inline;                                     font-size: 12px;                                     color: #FFFFFF;\">DoB</td>\n                                <td style=\"margin-left: 0px;                                     display: inline;                                     font-size: 12px;                                     margin-right: 30px;                                     color: #FFFFFF;\">11 Oct 1978</td>\n                                <td style=\"display: inline;                                     font-size: 12px;                                     color: #FFFFFF;\">GENDER</td>\n                                <td style=\"margin-left: 0px;                                     display: inline;                                     font-size: 12px;                                     margin-right: 30px;                                     color: #FFFFFF;\">Female</td>\n                                <td style=\"display: inline;                                     font-size: 11px;                                     color: #FFFFFF;\">IHI</td>\n                                <td style=\"margin-left: 0px;                                     display: inline;                                     font-size: 12px;                                     margin-right: 30px;                                     color: #FFFFFF;\">8003 6080 0022 8445</td>\n                                <td style=\"display: inline;                                     font-size: 12px;                                     color: #FFFFFF;\">INDIGENOUS STATUS</td>\n                                <td style=\"margin-left: 0px;                                     display: inline;                                     font-size: 12px;                                     margin-right: 30px;                                     color: #FFFFFF;                                     word-wrap: break-word;\">Aboriginal but not Torres Strait Islander origin</td>\n                            </tr>\n                        </table>\n                        <table style=\"border-collapse:collapse;border-spacing:0;width:100%;background-color:#696969\">\n                            <tbody>\n                                <tr>\n                                    <td colspan=\"9\" style=\"vertical-align: top;                             text-align: center;                             margin 0px;                             font-size: 15px;                             font-family: Helvetica;                             color: #FFFFFF;                             font-weight: bold;\">START OF DOCUMENT</td>\n                                </tr>\n                            </tbody>\n                        </table>\n                        <table style=\"width:100%\">\n                            <tbody>\n                                <tr>\n                                    <td style=\"width:50%\">\n                                        <table>\n                                            <thead>\n                                                <tr>\n                                                  <th colspan=\"1\" style=\"padding-top: 15px;                                                         vertical-align: top;                                                         text-align: center;                                                         margin 0px;                                                         font-family: Helvetica;                                                         font-size:14px;                                                         font-weight: bold;                                                         text-decoration: underline;                                                         text-align: left;                                                         word-wrap: break-word;\">Requester</th>\n                                                </tr>\n                                            </thead>\n                                            <tbody>\n                                                <tr>\n                                                    <td>Dr Sarah Bondiali (General Practitioner)</td>\n                                                </tr>\n                                                <tr>\n                                                    <td>Bondi GP Medical Center NSW</td>\n                                                </tr>\n                                            </tbody>\n                                        </table>\n                                        <table>\n                                            <thead>\n                                                <tr>\n                                                  <th colspan=\"2\" style=\"padding-top: 15px;                                                         vertical-align: top;                                                         text-align: center;                                                         margin 0px;                                                         font-family: Helvetica;                                                         font-size:14px;                                                         font-weight: bold;                                                         text-decoration: underline;                                                         text-align: left;                                                         word-wrap: break-word;\">Request Details</th>\n                                                </tr>\n                                            </thead>\n                                            <tbody>\n                                                <tr>\n                                                  <td style=\"font-weight: bold;\">Request\n                                                  Date/Time:</td>\n                                                  <td>10 July 2016 11:15</td>\n                                                </tr>\n                                                <tr>\n                                                  <td style=\"font-weight: bold;\">Requested\n                                                  Test:</td>\n                                                  <td>FBC</td>\n                                                </tr>\n                                            </tbody>\n                                        </table>\n                                    </td>\n                                    <td>\n                                        <table>\n                                            <thead>\n                                                <tr>\n                                                  <th colspan=\"2\" style=\"padding-top: 15px;                                                         vertical-align: top;                                                         text-align: center;                                                         margin 0px;                                                         font-family: Helvetica;                                                         font-size:14px;                                                         font-weight: bold;                                                         text-decoration: underline;                                                         text-align: left;                                                         word-wrap: break-word;\">Author</th>\n                                                </tr>\n                                            </thead>\n                                            <tbody>\n                                                <tr>\n                                                    <td>Dr. Robert Brown (Haematologist)</td>\n                                                </tr>\n                                                <tr>\n                                                    <td>0491 578 888</td>\n                                                </tr>\n                                                <tr>\n                                                  <td/>\n                                                </tr>\n                                                <tr>\n                                                    <td>Randwick Laboratories Sydney (NATA:\n                                                        100201) (ABN: 41824753000)</td>\n                                                </tr>\n                                                <tr>\n                                                    <td>1342 Sydney St, Randwick, NSW, 2031</td>\n                                                </tr>\n                                                <tr>\n                                                    <td>(02) 5550 8994</td>\n                                                </tr>\n                                            </tbody>\n                                        </table>\n                                    </td>\n                                </tr>\n                                <tr>\n                                    <td>\n                                        <table>\n                                            <thead>\n                                                <tr>\n                                                  <th colspan=\"2\" style=\"padding-top: 15px;                                                         vertical-align: top;                                                         text-align: center;                                                         margin 0px;                                                         font-family: Helvetica;                                                         font-size:14px;                                                         font-weight: bold;                                                         text-decoration: underline;                                                         text-align: left;                                                         word-wrap: break-word;\">Report Details</th>\n                                                </tr>\n                                            </thead>\n                                            <tbody>\n                                                <tr>\n                                                  <td style=\"font-weight: bold;\">Report\n                                                  Date/Time:</td>\n                                                    <td>13 July 2016 11:45</td>\n                                                </tr>\n                                                <tr>\n                                                  <td style=\"font-weight: bold;\">Report Name:</td>\n                                                    <td>Full Blood Count 2016-07-13</td>\n                                                </tr>\n                                                <tr>\n                                                  <td style=\"font-weight: bold;\">Report ID:</td>\n                                                    <td>652973694</td>\n                                                </tr>\n                                                <tr>\n                                                  <td style=\"font-weight: bold;\">Report Status:</td>\n                                                  <td>Preliminary</td>\n                                                </tr>\n                                                <tr>\n                                                  <td style=\"font-weight: bold;\">Diagnostic\n                                                  Service(s):</td>\n                                                  <td>Hematology</td>\n                                                </tr>\n                                            </tbody>\n                                        </table>\n                                    </td>\n                                </tr>\n                            </tbody>\n                        </table>\n                        <h1 style=\" width: 100%;                             font-size: 17px;                             font-weight: bold;                             color: #000000;                             margin-bottom: 5px;                             margin-top: 0px;                             border-bottom: 1px SOLID #000000;;                             padding: 0px;                             word-wrap: break-word;\">Pathology Report</h1>\n                        <table style=\"border-collapse:collapse;border-spacing:0;width:100%;\">\n                            <thead>\n                                <tr>\n                                    <th>\n                                        <tr style=\"background-color:#DCDCDC\">\n                                            <th style=\"padding-top: 15px;                                             vertical-align: top;                                             text-align: center;                                             margin 0px;                                             font-family: Helvetica;                                             font-size: 14px;                                             font-weight: bold;                                             text-align: left;                                             word-wrap: break-word;\">Test Name</th>\n                                            <th style=\"padding-top: 15px;                                                 vertical-align: top;                                                 text-align: center;                                                 margin 0px;                                                 font-family: Helvetica;                                                 font-size: 14px;                                                 font-weight: bold;                                                 text-align: left;                                                 word-wrap: break-word;\">Diagnostic Service</th>\n                                            <th style=\"padding-top: 15px;                                             vertical-align: top;                                             text-align: center;                                             margin 0px;                                             font-family: Helvetica;                                             font-weight: bold;                                             font-size: 14px;                                             text-align: left;                                             word-wrap: break-word;\">Test Date/Time</th>\n                                            <th style=\"padding-top: 15px;                                                 vertical-align: top;                                                 text-align: center;                                                 margin 0px;                                                 font-family: Helvetica;                                                 font-size: 14px;                                                 font-weight: bold;                                                 text-align: left;                                                 word-wrap: break-word;\">Status</th>\n                                        </tr>\n                                    </th>\n                                </tr>\n                            </thead>\n                            <tbody>\n                                <tbody>\n                                    <tr>\n                                        <td>FBC</td>\n                                        <td>Hematology</td>\n                                        <td>13 July 2016 10:30</td>\n                                        <td>Preliminary</td>\n                                    </tr>\n                                    <tr>\n                                        <td>ESR</td>\n                                        <td>Hematology</td>\n                                        <td>13 July 2016 10:30</td>\n                                        <td>Preliminary</td>\n                                    </tr>\n                                </tbody>\n                            </tbody>\n                        </table>\n                        <p>\n                            <a href=\"https://github.com/AuDigitalHealth/ci-fhir-r4/tree/master/examples/Full-Blood-Count-2016-07-13.pdf\">Link to PDF document</a>\n                        </p>\n                        <table style=\"border-collapse:collapse;border-spacing:0;width:100%;background-color:#696969\">\n                            <tbody>\n                                <tr>\n                                    <td colspan=\"9\" style=\"vertical-align: top;                             text-align: center;                             margin 0px;                             font-size: 15px;                             font-family: Helvetica;                             color: #FFFFFF;                             font-weight: bold;\">ADMINISTRATIVE DETAILS</td>\n                                </tr>\n                            </tbody>\n                        </table>\n                        <table style=\"border-collapse:collapse;border-spacing:0;width:100%;background-color:#DCDCDC\">\n                            <tbody>\n                                <tr>\n                                    <td>\n                                        <table>\n                                            <thead>\n                                                <tr>\n                                                  <th colspan=\"2\" style=\"padding-top: 15px;                                             vertical-align: top;                                             text-align: center;                                             margin 0px;                                             font-family: Helvetica;                                             font-size:14px;                                             font-weight: bold;                                             font-style: italic;                                             text-align: left;                                             word-wrap: break-word;\">Patient</th>\n                                                </tr>\n                                            </thead>\n                                            <tbody>\n                                                <tr>\n                                                  <td style=\"font-weight: bold; color:#808080\">Name</td>\n                                                  <td>Mrs Anne THOMPSON</td>\n                                                </tr>\n                                                <tr>\n                                                  <td style=\"font-weight: bold; color:#808080\">Gender</td>\n                                                  <td>Female</td>\n                                                </tr>\n                                                <tr>\n                                                  <td style=\"font-weight: bold; color:#808080\">Indigenous Status</td>\n                                                    <td>Aboriginal but not Torres Strait Islander origin</td>\n                                                </tr>\n                                                <tr>\n                                                  <td style=\"font-weight: bold; color:#808080\">Date\n                                                  of Birth</td>\n                                                    <td>11 Oct 1978 (42y)</td>\n                                                </tr>\n                                                <tr>\n                                                  <td style=\"font-weight: bold; color:#808080\">IHI</td>\n                                                  <td>8003608000228437</td>\n                                                </tr>\n                                                <tr>\n                                                  <td style=\"font-weight: bold; color:#808080\">Medicare Number</td>\n                                                    <td>6951449601</td>\n                                                </tr>\n                                                <tr>\n                                                    <td style=\"font-weight: bold; color:#808080\">MRN Number</td>\n                                                    <td>123456</td>\n                                                </tr>\n                                            </tbody>\n                                        </table>\n                                    </td>\n                                    <td>\n                                        <table>\n                                            <thead>\n                                                <tr>\n                                                  <th colspan=\"2\" style=\"padding-top: 15px;                                             vertical-align: top;                                             text-align: center;                                             margin 0px;                                             font-family: Helvetica;                                             font-size:14px;                                             font-style: italic;                                             font-weight: bold;                                             text-align: left;                                             word-wrap: break-word;\">Author</th>\n                                                </tr>\n                                            </thead>\n                                            <tbody>\n                                                <tr>\n                                                  <td style=\"font-weight: bold;color:#808080\">Name</td>\n                                                    <td>Dr. Robert Brown (Haematologist)</td>\n                                                </tr>\n                                                <tr>\n                                                  <td style=\"font-weight: bold; color:#808080\">Phone</td>\n                                                    <td>0491 578 888</td>\n                                                </tr>\n                                                <tr>\n                                                  <td style=\"font-weight: bold; color:#808080\">Organisation</td>\n                                                    <td>Randwick Laboratories Sydney (NATA: 100201) (ABN: 41824753000)</td>\n                                                </tr>\n                                                <tr>\n                                                  <td style=\"font-weight: bold; color:#808080\">Work\n                                                  Place</td>\n                                                    <td>1342 Sydney St, Randwick, NSW, 2031</td>\n                                                </tr>\n                                                <tr>\n                                                    <td style=\"font-weight: bold; color:#808080\">Phone</td>\n                                                    <td>(02) 5550 8994</td>\n                                                </tr>\n                                            </tbody>\n                                        </table>\n                                        <table>\n                                            <thead>\n                                                <tr>\n                                                  <th colspan=\"2\" style=\"padding-top: 15px;                                             vertical-align: top;                                             text-align: center;                                             margin 0px;                                             font-family: Helvetica;                                             font-size:14px;                                             font-weight: bold;                                             font-style: italic;                                             text-align: left;                                             word-wrap: break-word;\">Clinical Document Details</th>\n                                                </tr>\n                                            </thead>\n                                            <tbody>\n                                                <tr>\n                                                  <td style=\"font-weight: bold; color:#808080\">Document Type</td>\n                                                    <td>100.32001 Pathology Report</td>\n                                                </tr>\n                                                <tr>\n                                                  <td style=\"font-weight: bold; color:#808080\">Document Created Date/Time</td>\n                                                    <td>13 July 2016 11:55:33</td>\n                                                </tr>\n                                                <tr>\n                                                    <td style=\"font-weight: bold; color:#808080\">Date/Time Authored</td>\n                                                    <td>13 July 2016 11:45</td>\n                                                </tr>\n                                                <tr>\n                                                  <td style=\"font-weight: bold; color:#808080\">Date/Time Attested</td>\n                                                    <td>13 July 2016 11:45</td>\n                                                </tr>\n                                                <tr>\n                                                  <td style=\"font-weight: bold; color:#808080\">Document ID</td>\n                                                    <td>fcb6b07b-4e0c-4ec6-94c2-00b744ffbb23</td>\n                                                </tr>\n                                                <tr>\n                                                  <td style=\"font-weight: bold; color:#808080\">Document Business ID</td>\n                                                    <td>f6287b69-19ab-4747-a568-5e1e4ad5d0d1</td>\n                                                </tr>\n                                                <tr>\n                                                  <td style=\"font-weight: bold; color:#808080\">Document Status</td>\n                                                  <td>Preliminary</td>\n                                                </tr>\n                                            </tbody>\n                                        </table>\n                                    </td>\n                                </tr>\n                            </tbody>\n                        </table>\n                        <table style=\"border-collapse:collapse;border-spacing:0;width:100%;background-color:#696969\">\n                            <tbody>\n                                <tr>\n                                    <td colspan=\"9\" style=\"vertical-align: top;                             text-align: center;                             margin 0px;                             font-size: 15px;                             font-family: Helvetica;                             color: #FFFFFF;                             font-weight: bold;\">END OF DOCUMENT</td>\n                                </tr>\n                            </tbody>\n                        </table>\n                    </div>"
        },
        "identifier": {
          "system": "urn:ietf:rfc:3986",
          "value": "urn:uuid:f6287b69-19ab-4747-a568-5e1e4ad5d0d1"
        },
        "status": "preliminary",
        "type": {
          "coding": [
            {
              "system": "https://healthterminologies.gov.au/fhir/CodeSystem/nctis-data-components-1",
              "code": "100.32001",
              "display": "Pathology Report"
            }
          ]
        },
        "subject": {
          "reference": "urn:uuid:9aeff67b-e9df-46dc-a366-2a33ec6dba1a"
        },
        "date": "2016-07-13T11:45:33+10:00",
        "author": [
          {
            "reference": "urn:uuid:9f8c3cdc-4889-4eee-8b5f-fd2c8ba716b7"
          }
        ],
        "title": "Pathology Report",
        "attester": [
          {
            "mode": "legal",
            "time": "2016-07-13T11:45:33+10:00",
            "party": {
              "reference": "urn:uuid:9f8c3cdc-4889-4eee-8b5f-fd2c8ba716b7"
            }
          }
        ],
        "custodian": {
          "reference": "urn:uuid:9aac0c75-2467-4245-8ea9-c25d96bbd3eb"
        },
        "section": [
          {
            "title": "Pathology Report",
            "code": {
              "coding": [
                {
                  "system": "http://loinc.org",
                  "code": "11526-1"
                }
              ]
            },
            "text": {
              "status": "generated",
              "div": "<div xmlns=\"http://www.w3.org/1999/xhtml\" lang=\"en-AU\">\n                            <table border=\"1\">\n                                <thead>\n                                    <tr>\n                                        <th>Test Name</th>\n                                        <th>Diagnostic Service</th>\n                                        <th>Test Date/Time</th>\n                                        <th>Status</th>\n                                    </tr>\n                                </thead>\n                                <tbody>\n                                    <tr>\n                                        <td>Full Blood Count</td>\n                                        <td>Hematology</td>\n                                        <td>06 Jan 2019 09:45</td>\n                                        <td>Final</td>\n                                    </tr>\n                                </tbody>\n                            </table>\n                            <p>\n                                <a href=\"https://github.com/AuDigitalHealth/ci-fhir-r4/tree/master/examples/Full-Blood-Count-2016-07-13.pdf\">Link to PDF document</a>\n                            </p>\n                        </div>"
            },
            "entry": [
              {
                "reference": "urn:uuid:d13ab38b-7d90-4486-a60f-dfb0f34f888c"
              }
            ]
          }
        ]
      }
    },
    {
      "fullUrl": "urn:uuid:d13ab38b-7d90-4486-a60f-dfb0f34f888c",
      "resource": {
        "resourceType": "DiagnosticReport",
        "id": "d13ab38b-7d90-4486-a60f-dfb0f34f888c",
        "meta": {
          "profile": [
            "http://ns.electronichealth.net.au/ci/fhir/StructureDefinition/diagnosticreport-path-mhr-1"
          ]
        },
        "language": "en-AU",
        "text": {
          "status": "generated",
          "div": "<div xmlns=\"http://www.w3.org/1999/xhtml\" xml:lang=\"en-AU\" lang=\"en-AU\"><p><b>Generated Narrative</b></p><p><b>identifier</b>: Filler Identifier: 652973694</p><p><b>basedOn</b>: <a href=\"#ServiceRequest_34a75ae5-f22a-4191-98e5-43ad2a4f4df0\">See above (ServiceRequest/34a75ae5-f22a-4191-98e5-43ad2a4f4df0)</a></p><p><b>status</b>: preliminary</p><p><b>category</b>: <span title=\"Codes: {http://terminology.hl7.org/CodeSystem/v2-0074 HM}\">Hematology</span>, <span title=\"Codes: {http://terminology.hl7.org/CodeSystem/v2-0074 LAB}\">Laboratory</span></p><p><b>code</b>: <span title=\"Codes: {http://loinc.org 57782-5}\">CBC with Ordered Manual Differential panel - Blood</span></p><p><b>subject</b>: <a href=\"#Patient_9aeff67b-e9df-46dc-a366-2a33ec6dba1a\">See above (Patient/9aeff67b-e9df-46dc-a366-2a33ec6dba1a)</a></p><p><b>effective</b>: 13/07/2016 10:30:10 AM</p><p><b>issued</b>: 13/07/2016 11:45:33 AM</p><p><b>performer</b>: </p><ul><li><a href=\"#PractitionerRole_9f8c3cdc-4889-4eee-8b5f-fd2c8ba716b7\">See above (PractitionerRole/9f8c3cdc-4889-4eee-8b5f-fd2c8ba716b7)</a></li><li><a href=\"#Organization_9aac0c75-2467-4245-8ea9-c25d96bbd3eb\">See above (Organization/9aac0c75-2467-4245-8ea9-c25d96bbd3eb)</a></li></ul><p><b>result</b>: </p><ul><li><a href=\"#Observation_764c70f0-a104-4c9a-beb8-ab478064ff9c\">See above (Observation/764c70f0-a104-4c9a-beb8-ab478064ff9c)</a></li><li><a href=\"#Observation_593e3cc4-3b23-4fa8-9e1b-8110d4b9df19\">See above (Observation/593e3cc4-3b23-4fa8-9e1b-8110d4b9df19)</a></li></ul><h3>PresentedForms</h3><table class=\"grid\"><tr><td>-</td></tr><tr><td>*</td></tr></table></div>"
        },
        "identifier": [
          {
            "type": {
              "coding": [
                {
                  "system": "http://terminology.hl7.org/CodeSystem/v2-0203",
                  "code": "FILL",
                  "display": "Filler Identifier"
                }
              ]
            },
            "system": "http://randwicklabs.example.com/labnum/1.0.2",
            "value": "652973694"
          }
        ],
        "basedOn": [
          {
            "reference": "urn:uuid:34a75ae5-f22a-4191-98e5-43ad2a4f4df0"
          }
        ],
        "status": "preliminary",
        "category": [
          {
            "coding": [
              {
                "system": "http://terminology.hl7.org/CodeSystem/v2-0074",
                "code": "HM",
                "display": "Hematology"
              }
            ]
          },
          {
            "coding": [
              {
                "system": "http://terminology.hl7.org/CodeSystem/v2-0074",
                "code": "LAB"
              }
            ]
          }
        ],
        "code": {
          "coding": [
            {
              "system": "http://loinc.org",
              "code": "57782-5",
              "display": "CBC with Ordered Manual Differential panel - Blood"
            }
          ]
        },
        "subject": {
          "reference": "urn:uuid:9aeff67b-e9df-46dc-a366-2a33ec6dba1a"
        },
        "effectiveDateTime": "2016-07-13T10:30:10+10:00",
        "issued": "2016-07-13T11:45:33+10:00",
        "performer": [
          {
            "reference": "urn:uuid:9f8c3cdc-4889-4eee-8b5f-fd2c8ba716b7"
          },
          {
            "reference": "urn:uuid:9aac0c75-2467-4245-8ea9-c25d96bbd3eb"
          }
        ],
        "result": [
          {
            "reference": "urn:uuid:764c70f0-a104-4c9a-beb8-ab478064ff9c"
          },
          {
            "reference": "urn:uuid:593e3cc4-3b23-4fa8-9e1b-8110d4b9df19"
          }
        ],
        "presentedForm": [
          {
            "contentType": "application/pdf",
            "url": "https://github.com/AuDigitalHealth/ci-fhir-r4/tree/master/examples/Full-Blood-Count-2016-07-13.pdf",
            "hash": "B76983EFF21645A601853319EFEF524140BE6539",
            "title": "Full Blood Count 2016-07-13"
          }
        ]
      }
    },
    {
      "fullUrl": "urn:uuid:764c70f0-a104-4c9a-beb8-ab478064ff9c",
      "resource": {
        "resourceType": "Observation",
        "id": "764c70f0-a104-4c9a-beb8-ab478064ff9c",
        "text": {
          "status": "generated",
          "div": "<div xmlns=\"http://www.w3.org/1999/xhtml\"><p><b>Generated Narrative</b></p><p><b>identifier</b>: Filler Identifier: 652973694</p><p><b>status</b>: preliminary</p><p><b>category</b>: <span title=\"Codes: {http://terminology.hl7.org/CodeSystem/v2-0074 HM}\">Hematology</span>, <span title=\"Codes: {http://terminology.hl7.org/CodeSystem/observation-category laboratory}\">Laboratory</span></p><p><b>code</b>: <span title=\"Codes: {http://loinc.org 57782-5}\">FBC</span></p><p><b>subject</b>: <a href=\"#Patient_9aeff67b-e9df-46dc-a366-2a33ec6dba1a\">See above (Patient/9aeff67b-e9df-46dc-a366-2a33ec6dba1a)</a></p><p><b>effective</b>: 13/07/2016 10:30:10 AM</p><p><b>performer</b>: </p><ul><li><a href=\"#PractitionerRole_9f8c3cdc-4889-4eee-8b5f-fd2c8ba716b7\">See above (PractitionerRole/9f8c3cdc-4889-4eee-8b5f-fd2c8ba716b7)</a></li><li><a href=\"#Organization_9aac0c75-2467-4245-8ea9-c25d96bbd3eb\">See above (Organization/9aac0c75-2467-4245-8ea9-c25d96bbd3eb)</a></li></ul></div>"
        },
        "identifier": [
          {
            "type": {
              "coding": [
                {
                  "system": "http://terminology.hl7.org/CodeSystem/v2-0203",
                  "code": "FILL",
                  "display": "Filler Identifier"
                }
              ]
            },
            "system": "http://randwicklabs.example.com/labnum/1.0.2",
            "value": "652973694"
          }
        ],
        "status": "preliminary",
        "category": [
          {
            "coding": [
              {
                "system": "http://terminology.hl7.org/CodeSystem/v2-0074",
                "code": "HM",
                "display": "Hematology"
              }
            ]
          },
          {
            "coding": [
              {
                "system": "http://terminology.hl7.org/CodeSystem/observation-category",
                "code": "laboratory"
              }
            ]
          }
        ],
        "code": {
          "coding": [
            {
              "system": "http://loinc.org",
              "code": "57782-5",
              "display": "CBC with Ordered Manual Differential panel - Blood"
            }
          ],
          "text": "FBC"
        },
        "subject": {
          "reference": "urn:uuid:9aeff67b-e9df-46dc-a366-2a33ec6dba1a"
        },
        "effectiveDateTime": "2016-07-13T10:30:10+10:00",
        "performer": [
          {
            "reference": "urn:uuid:9f8c3cdc-4889-4eee-8b5f-fd2c8ba716b7"
          },
          {
            "reference": "urn:uuid:9aac0c75-2467-4245-8ea9-c25d96bbd3eb"
          }
        ]
      }
    },
    {
      "fullUrl": "urn:uuid:593e3cc4-3b23-4fa8-9e1b-8110d4b9df19",
      "resource": {
        "resourceType": "Observation",
        "id": "593e3cc4-3b23-4fa8-9e1b-8110d4b9df19",
        "text": {
          "status": "generated",
          "div": "<div xmlns=\"http://www.w3.org/1999/xhtml\"><p><b>Generated Narrative</b></p><p><b>identifier</b>: Filler Identifier: 652973694</p><p><b>status</b>: preliminary</p><p><b>category</b>: <span title=\"Codes: {http://terminology.hl7.org/CodeSystem/v2-0074 HM}\">Hematology</span>, <span title=\"Codes: {http://terminology.hl7.org/CodeSystem/observation-category laboratory}\">Laboratory</span></p><p><b>code</b>: <span title=\"Codes: {http://loinc.org 30341-2}\">ESR</span></p><p><b>subject</b>: <a href=\"#Patient_9aeff67b-e9df-46dc-a366-2a33ec6dba1a\">See above (Patient/9aeff67b-e9df-46dc-a366-2a33ec6dba1a)</a></p><p><b>effective</b>: 13/07/2016 10:30:10 AM</p><p><b>performer</b>: </p><ul><li><a href=\"#PractitionerRole_9f8c3cdc-4889-4eee-8b5f-fd2c8ba716b7\">See above (PractitionerRole/9f8c3cdc-4889-4eee-8b5f-fd2c8ba716b7)</a></li><li><a href=\"#Organization_9aac0c75-2467-4245-8ea9-c25d96bbd3eb\">See above (Organization/9aac0c75-2467-4245-8ea9-c25d96bbd3eb)</a></li></ul></div>"
        },
        "identifier": [
          {
            "type": {
              "coding": [
                {
                  "system": "http://terminology.hl7.org/CodeSystem/v2-0203",
                  "code": "FILL",
                  "display": "Filler Identifier"
                }
              ]
            },
            "system": "http://randwicklabs.example.com/labnum/1.0.2",
            "value": "652973694"
          }
        ],
        "status": "preliminary",
        "category": [
          {
            "coding": [
              {
                "system": "http://terminology.hl7.org/CodeSystem/v2-0074",
                "code": "HM",
                "display": "Hematology"
              }
            ]
          },
          {
            "coding": [
              {
                "system": "http://terminology.hl7.org/CodeSystem/observation-category",
                "code": "laboratory"
              }
            ]
          }
        ],
        "code": {
          "coding": [
            {
              "system": "http://loinc.org",
              "code": "30341-2",
              "display": "Erythrocyte sedimentation rate"
            }
          ],
          "text": "ESR"
        },
        "subject": {
          "reference": "urn:uuid:9aeff67b-e9df-46dc-a366-2a33ec6dba1a"
        },
        "effectiveDateTime": "2016-07-13T10:30:10+10:00",
        "performer": [
          {
            "reference": "urn:uuid:9f8c3cdc-4889-4eee-8b5f-fd2c8ba716b7"
          },
          {
            "reference": "urn:uuid:9aac0c75-2467-4245-8ea9-c25d96bbd3eb"
          }
        ]
      }
    },
    {
      "fullUrl": "urn:uuid:34a75ae5-f22a-4191-98e5-43ad2a4f4df0",
      "resource": {
        "resourceType": "ServiceRequest",
        "id": "34a75ae5-f22a-4191-98e5-43ad2a4f4df0",
        "text": {
          "status": "generated",
          "div": "<div xmlns=\"http://www.w3.org/1999/xhtml\"><p><b>Generated Narrative</b></p><p><b>status</b>: completed</p><p><b>intent</b>: order</p><p><b>category</b>: <span title=\"Codes: {http://snomed.info/sct 108252007}\">Laboratory procedure</span></p><p><b>code</b>: <span title=\"Codes: {http://snomed.info/sct 26604007}\">Full blood count</span></p><p><b>subject</b>: <a href=\"#Patient_9aeff67b-e9df-46dc-a366-2a33ec6dba1a\">See above (Patient/9aeff67b-e9df-46dc-a366-2a33ec6dba1a)</a></p><p><b>authoredOn</b>: 10/07/2016 11:15:00 AM</p><p><b>requester</b>: <a href=\"#PractitionerRole_81d4d5f4-6dde-41f1-9973-89999a31c3f0\">See above (PractitionerRole/81d4d5f4-6dde-41f1-9973-89999a31c3f0)</a></p></div>"
        },
        "status": "completed",
        "intent": "order",
        "category": [
          {
            "coding": [
              {
                "system": "http://snomed.info/sct",
                "code": "108252007",
                "display": "Laboratory procedure"
              }
            ]
          }
        ],
        "code": {
          "coding": [
            {
              "system": "http://snomed.info/sct",
              "code": "26604007",
              "display": "Full blood count"
            }
          ]
        },
        "subject": {
          "reference": "urn:uuid:9aeff67b-e9df-46dc-a366-2a33ec6dba1a"
        },
        "authoredOn": "2016-07-10T11:15:00+10:00",
        "requester": {
          "reference": "urn:uuid:81d4d5f4-6dde-41f1-9973-89999a31c3f0"
        }
      }
    },
    {
      "fullUrl": "urn:uuid:9aeff67b-e9df-46dc-a366-2a33ec6dba1a",
      "resource": {
        "resourceType": "Patient",
        "id": "9aeff67b-e9df-46dc-a366-2a33ec6dba1a",
        "text": {
          "status": "extensions",
          "div": "<div xmlns=\"http://www.w3.org/1999/xhtml\"><p><b>Generated Narrative</b></p><p><b>Australian Indigeneous Status</b>: <span title=\"{https://healthterminologies.gov.au/fhir/CodeSystem/australian-indigenous-status-1 1}\">Aboriginal but not Torres Strait Islander origin</span></p><p><b>identifier</b>: IHI: 8003608000228445, Medicare Number: 6951449601, Medical Record Number: 123456</p><p><b>name</b>: Mrs. Anne Thompson(OFFICIAL)</p><p><b>gender</b>: female</p><p><b>birthDate</b>: 1978-10-11</p><h3>Communications</h3><table class=\"grid\"><tr><td>-</td><td><b>Language</b></td></tr><tr><td>*</td><td><span title=\"Codes: {urn:ietf:bcp:47 yub}\">Yugambal</span></td></tr></table></div>"
        },
        "extension": [
          {
            "url": "http://hl7.org.au/fhir/StructureDefinition/indigenous-status",
            "valueCoding": {
              "system": "https://healthterminologies.gov.au/fhir/CodeSystem/australian-indigenous-status-1",
              "code": "1",
              "display": "Aboriginal but not Torres Strait Islander origin"
            }
          }
        ],
        "identifier": [
          {
            "extension": [
              {
                "url": "http://hl7.org.au/fhir/StructureDefinition/ihi-status",
                "valueCoding": {
                  "system": "https://healthterminologies.gov.au/fhir/CodeSystem/ihi-status-1",
                  "code": "active"
                }
              },
              {
                "url": "http://hl7.org.au/fhir/StructureDefinition/ihi-record-status",
                "valueCoding": {
                  "system": "https://healthterminologies.gov.au/fhir/CodeSystem/ihi-record-status-1",
                  "code": "verified",
                  "display": "verified"
                }
              }
            ],
            "type": {
              "coding": [
                {
                  "system": "http://terminology.hl7.org/CodeSystem/v2-0203",
                  "code": "NI"
                }
              ],
              "text": "IHI"
            },
            "system": "http://ns.electronichealth.net.au/id/hi/ihi/1.0",
            "value": "8003608000228445"
          },
          {
            "type": {
              "coding": [
                {
                  "system": "http://terminology.hl7.org/CodeSystem/v2-0203",
                  "code": "MC"
                }
              ],
              "text": "Medicare Number"
            },
            "system": "http://ns.electronichealth.net.au/id/medicare-number",
            "value": "6951449601"
          },
          {
            "type": {
              "coding": [
                {
                  "system": "http://terminology.hl7.org/CodeSystem/v2-0203",
                  "code": "MR",
                  "display": "Medical record number"
                }
              ],
              "text": "Medical Record Number"
            },
            "system": "http://ns.electronichealth.net.au/id/hpio-scoped/medicalrecord/1.0/8003621566684455",
            "value": "123456",
            "assigner": {
              "display": "NSW Example Hospital"
            }
          }
        ],
        "name": [
          {
            "use": "official",
            "text": "Mrs. Anne Thompson",
            "family": "Thompson",
            "given": [
              "Anne"
            ],
            "prefix": [
              "Mrs"
            ]
          }
        ],
        "gender": "female",
        "birthDate": "1978-10-11",
        "communication": [
          {
            "language": {
              "coding": [
                {
                  "system": "urn:ietf:bcp:47",
                  "code": "yub"
                }
              ],
              "text": "Yugambal"
            }
          }
        ]
      }
    },
    {
      "fullUrl": "urn:uuid:9f8c3cdc-4889-4eee-8b5f-fd2c8ba716b7",
      "resource": {
        "resourceType": "PractitionerRole",
        "id": "9f8c3cdc-4889-4eee-8b5f-fd2c8ba716b7",
        "text": {
          "status": "generated",
          "div": "<div xmlns=\"http://www.w3.org/1999/xhtml\"><p><b>Generated Narrative</b></p><p><b>identifier</b>: HPI-I: 8003614900041243, Employee Number: RBRLSNSW765301</p><p><b>practitioner</b>: <a href=\"#Practitioner_d68312c9-b122-4fe5-8e3c-f550bd989f4b\">Dr. Robert Brown. Generated Summary: HPI-I: 8003614900041243; Robert Brown ; Phone: 0491 578 888</a></p><p><b>organization</b>: <a href=\"#Organization_9aac0c75-2467-4245-8ea9-c25d96bbd3eb\">Randwick Laboratories Sydney. Generated Summary: NATA Accreditation Number: 100201, ABN: 41824753000; <span title=\"Codes: {http://www.abs.gov.au/ausstats/abs@.nsf/mf/1292.0 8520}\">Pathology Laboratory</span>; name: Randwick Laboratories Sydney; Phone: (02) 5550 8994</a></p><p><b>code</b>: <span title=\"Codes: {http://snomed.info/sct 40204001}\">Haematologist</span></p></div>"
        },
        "identifier": [
          {
            "type": {
              "coding": [
                {
                  "system": "http://terminology.hl7.org/CodeSystem/v2-0203",
                  "code": "NPI",
                  "display": "National provider identifier"
                }
              ],
              "text": "HPI-I"
            },
            "system": "http://ns.electronichealth.net.au/id/hi/hpii/1.0",
            "value": "8003614900041243"
          },
          {
            "type": {
              "coding": [
                {
                  "system": "http://terminology.hl7.org/CodeSystem/v2-0203",
                  "code": "EI",
                  "display": "Employee number"
                }
              ],
              "text": "Employee Number"
            },
            "system": "http://ns.electronichealth.net.au/id/abn-scoped/service-provider-individual/1.0/41824753000",
            "value": "RBRLSNSW765301",
            "assigner": {
              "display": "Randwick Laboratories Sydney"
            }
          }
        ],
        "practitioner": {
          "reference": "urn:uuid:d68312c9-b122-4fe5-8e3c-f550bd989f4b",
          "display": "Dr. Robert Brown"
        },
        "organization": {
          "reference": "urn:uuid:9aac0c75-2467-4245-8ea9-c25d96bbd3eb",
          "display": "Randwick Laboratories Sydney"
        },
        "code": [
          {
            "coding": [
              {
                "system": "http://snomed.info/sct",
                "code": "40204001",
                "display": "Haematologist"
              }
            ],
            "text": "Haematologist"
          }
        ]
      }
    },
    {
      "fullUrl": "urn:uuid:d68312c9-b122-4fe5-8e3c-f550bd989f4b",
      "resource": {
        "resourceType": "Practitioner",
        "id": "d68312c9-b122-4fe5-8e3c-f550bd989f4b",
        "text": {
          "status": "generated",
          "div": "<div xmlns=\"http://www.w3.org/1999/xhtml\"><p><b>Generated Narrative</b></p><p><b>identifier</b>: HPI-I: 8003614900041243</p><p><b>name</b>: Robert Brown </p><p><b>telecom</b>: ph: 0491 578 888(MOBILE)</p><p><b>address</b>: 1342 Sydney St Randwick NSW 2031 AU (WORK)</p></div>"
        },
        "identifier": [
          {
            "type": {
              "coding": [
                {
                  "system": "http://terminology.hl7.org/CodeSystem/v2-0203",
                  "code": "NPI",
                  "display": "National provider identifier"
                }
              ],
              "text": "HPI-I"
            },
            "system": "http://ns.electronichealth.net.au/id/hi/hpii/1.0",
            "value": "8003614900041243"
          }
        ],
        "name": [
          {
            "use": "usual",
            "family": "Brown",
            "given": [
              "Robert"
            ],
            "prefix": [
              "Dr."
            ]
          }
        ],
        "telecom": [
          {
            "system": "phone",
            "value": "0491 578 888",
            "use": "mobile"
          }
        ],
        "address": [
          {
            "use": "work",
            "line": [
              "1342 Sydney St"
            ],
            "city": "Randwick",
            "state": "NSW",
            "postalCode": "2031",
            "country": "AU"
          }
        ]
      }
    },
    {
      "fullUrl": "urn:uuid:9aac0c75-2467-4245-8ea9-c25d96bbd3eb",
      "resource": {
        "resourceType": "Organization",
        "id": "9aac0c75-2467-4245-8ea9-c25d96bbd3eb",
        "text": {
          "status": "generated",
          "div": "<div xmlns=\"http://www.w3.org/1999/xhtml\"><p><b>Generated Narrative</b></p><p><b>identifier</b>: NATA Accreditation Number: 100201, ABN: 41824753000</p><p><b>type</b>: <span title=\"Codes: {http://www.abs.gov.au/ausstats/abs@.nsf/mf/1292.0 8520}\">Pathology Laboratory</span></p><p><b>name</b>: Randwick Laboratories Sydney</p><p><b>telecom</b>: ph: (02) 5550 8994(WORK)</p><p><b>address</b>: 1342 Sydney St Randwick NSW 2031 AU </p></div>"
        },
        "identifier": [
          {
            "type": {
              "text": "NATA Accreditation Number"
            },
            "system": "http://hl7.org.au/id/nata-accreditation",
            "value": "100201"
          },
          {
            "type": {
              "text": "ABN"
            },
            "system": "http://hl7.org.au/id/abn",
            "value": "41824753000"
          }
        ],
        "type": [
          {
            "coding": [
              {
                "system": "http://www.abs.gov.au/ausstats/abs@.nsf/mf/1292.0",
                "code": "8520",
                "display": "Pathology and Diagnostic Imaging Services"
              }
            ],
            "text": "Pathology Laboratory"
          }
        ],
        "name": "Randwick Laboratories Sydney",
        "telecom": [
          {
            "system": "phone",
            "value": "(02) 5550 8994",
            "use": "work"
          }
        ],
        "address": [
          {
            "line": [
              "1342 Sydney St"
            ],
            "city": "Randwick",
            "state": "NSW",
            "postalCode": "2031",
            "country": "AU"
          }
        ]
      }
    },
    {
      "fullUrl": "urn:uuid:81d4d5f4-6dde-41f1-9973-89999a31c3f0",
      "resource": {
        "resourceType": "PractitionerRole",
        "id": "81d4d5f4-6dde-41f1-9973-89999a31c3f0",
        "text": {
          "status": "generated",
          "div": "<div xmlns=\"http://www.w3.org/1999/xhtml\"><p><b>Generated Narrative</b></p><p><b>identifier</b>: Employee Number: 8223NSW</p><p><b>practitioner</b>: <span>Dr Sarah Bondiali</span></p><p><b>organization</b>: <span>Bondi GP Medical Center NSW</span></p><p><b>code</b>: <span title=\"Codes: {http://snomed.info/sct 62247001}\">General Practitioner</span></p></div>"
        },
        "identifier": [
          {
            "type": {
              "coding": [
                {
                  "system": "http://terminology.hl7.org/CodeSystem/v2-0203",
                  "code": "EI",
                  "display": "Employee number"
                }
              ],
              "text": "Employee Number"
            },
            "system": "http://bondigpmedicalcenter.example.com/providers",
            "value": "8223NSW",
            "assigner": {
              "display": "Bondi GP Medical Center NSW"
            }
          }
        ],
        "practitioner": {
          "display": "Dr Sarah Bondiali"
        },
        "organization": {
          "display": "Bondi GP Medical Center NSW"
        },
        "code": [
          {
            "coding": [
              {
                "system": "http://snomed.info/sct",
                "code": "62247001"
              }
            ],
            "text": "General Practitioner"
          }
        ]
      }
    }
  ]
}