{
  "resourceType": "Bundle",
  "id": "94f75158-f8b9-4c08-b96e-4306580c2add",
  "meta": {
    "lastUpdated": "2020-03-17T11:46:00+10:00"
  },
  "identifier": {
    "system": "urn:ietf:rfc:3986",
    "value": "urn:uuid:94f75158-f8b9-4c08-b96e-4306580c2add"
  },
  "type": "document",
  "timestamp": "2020-03-17T11:46:00+10:00",
  "entry": [
    {
      "fullUrl": "urn:uuid:ca476713-74eb-4700-8ed6-f0087a5b513a",
      "resource": {
        "resourceType": "Composition",
        "id": "ca476713-74eb-4700-8ed6-f0087a5b513a",
        "meta": {
          "lastUpdated": "2020-03-17T11:46:00+10:00",
          "profile": [
            "http://ns.electronichealth.net.au/ci/fhir/4.0/StructureDefinition/composition-otherdiagreport-1"
          ]
        },
        "language": "en-AU",
        "text": {
          "status": "generated",
          "div": "<div xmlns=\"http://www.w3.org/1999/xhtml\" lang=\"en-AU\">\n                        <table style=\"border-collapse:collapse;border-spacing:0;width:100%;background-color:#000000\">\n                            <tr>\n                                <th colspan=\"9\" style=\"padding-top: 40px;                                     vertical-align: top;                                     text-align: center;                                     margin 0px;                                     font-size: 20px;                                     font-family: Helvetica;                                     color: #FFFFFF;                                     font-weight: bold;                                     word-wrap: break-word;\">Echocardiography Report</th>\n                            </tr>\n                            <tr>\n                                <td colspan=\"9\" style=\"vertical-align: top;                                     text-align: center;                                     margin 0px;                                     font-size: 15px;                                     font-family: Helvetica;                                     color: #FFFFFF;                                     font-weight: bold;\">06 Jan 2019 10:12</td>\n                            </tr>\n                            <tr>\n                                <td style=\"display: inline;                                      margin-right: 20px;                                      font-size: 13px;                                     color: #FFFFFF;\">Mr Wei <span class=\"bold\">ZHANG</span></td>\n                                <td style=\"display: inline;                                     font-size: 12px;                                     color: #FFFFFF;\">DoB</td>\n                                <td style=\"margin-left: 0px;                                     display: inline;                                     font-size: 12px;                                     margin-right: 30px;                                     color: #FFFFFF;\">03 May 1969</td>\n                                <td style=\"display: inline;                                     font-size: 12px;                                     color: #FFFFFF;\">GENDER</td>\n                                <td style=\"margin-left: 0px;                                     display: inline;                                     font-size: 12px;                                     margin-right: 30px;                                     color: #FFFFFF;\">Male</td>\n                                <td style=\"display: inline;                                     font-size: 11px;                                     color: #FFFFFF;\">IHI</td>\n                                <td style=\"margin-left: 0px;                                     display: inline;                                     font-size: 12px;                                     margin-right: 30px;                                     color: #FFFFFF;\">8003 6080 0022 8437</td>\n                                <td style=\"display: inline;                                     font-size: 12px;                                     color: #FFFFFF;\">INDIGENOUS STATUS</td>\n                                <td style=\"margin-left: 0px;                                     display: inline;                                     font-size: 12px;                                     margin-right: 30px;                                     color: #FFFFFF;                                     word-wrap: break-word;\">Neither Aboriginal nor Torres Strait Islander origin</td>\n                            </tr>\n                        </table>\n                        <table style=\"border-collapse:collapse;border-spacing:0;width:100%;background-color:#696969\">\n                            <tbody>\n                                <tr>\n                                    <td colspan=\"9\" style=\"vertical-align: top;                             text-align: center;                             margin 0px;                             font-size: 15px;                             font-family: Helvetica;                             color: #FFFFFF;                             font-weight: bold;\">START OF DOCUMENT</td>\n                                </tr>\n                            </tbody>\n                        </table>\n                        <table style=\"width:100%\">\n                            <tbody>\n                                <tr>\n                                    <td style=\"width:50%\">\n                                        <table>\n                                            <thead>\n                                                <tr>\n                                                  <th colspan=\"1\" style=\"padding-top: 15px;                                                         vertical-align: top;                                                         text-align: center;                                                         margin 0px;                                                         font-family: Helvetica;                                                         font-size:14px;                                                         font-weight: bold;                                                         text-decoration: underline;                                                         text-align: left;                                                         word-wrap: break-word;\">Requester</th>\n                                                </tr>\n                                            </thead>\n                                            <tbody>\n                                                <tr>\n                                                  <td>Dr David George (Oncologist) (HPI-I:\n                                                  8003614900041243)</td>\n                                                </tr>\n                                                <tr>\n                                                  <td>Fred Hope Cancer Centre</td>\n                                                </tr>\n                                            </tbody>\n                                        </table>\n                                        <table>\n                                            <thead>\n                                                <tr>\n                                                  <th colspan=\"2\" style=\"padding-top: 15px;                                                         vertical-align: top;                                                         text-align: center;                                                         margin 0px;                                                         font-family: Helvetica;                                                         font-size:14px;                                                         font-weight: bold;                                                         text-decoration: underline;                                                         text-align: left;                                                         word-wrap: break-word;\">Request Details</th>\n                                                </tr>\n                                            </thead>\n                                            <tbody>\n                                                <tr>\n                                                  <td style=\"font-weight: bold;\">Request\n                                                  Date/Time:</td>\n                                                  <td>05 Jan 2019 0:00</td>\n                                                </tr>\n                                                <tr>\n                                                  <td style=\"font-weight: bold;\">Requested\n                                                  Test:</td>\n                                                  <td>Echocardiography</td>\n                                                </tr>\n                                            </tbody>\n                                        </table>\n                                    </td>\n                                    <td>\n                                        <table>\n                                            <thead>\n                                                <tr>\n                                                  <th colspan=\"2\" style=\"padding-top: 15px;                                                         vertical-align: top;                                                         text-align: center;                                                         margin 0px;                                                         font-family: Helvetica;                                                         font-size:14px;                                                         font-weight: bold;                                                         text-decoration: underline;                                                         text-align: left;                                                         word-wrap: break-word;\">Author</th>\n                                                </tr>\n                                            </thead>\n                                            <tbody>\n                                                <tr>\n                                                  <td>Dr Fredrika Bremer (Cardiologist)</td>\n                                                </tr>\n                                                <tr>\n                                                  <td>(02) 5550 4111</td>\n                                                </tr>\n                                                <tr>\n                                                  <td/>\n                                                </tr>\n                                                <tr>\n                                                  <td>NSW Hospital - Cardiology (HPI-O:\n                                                  8003626566699734) (ABN: 41824753557)</td>\n                                                </tr>\n                                                <tr>\n                                                  <td>2325 Rocklands Rd, North Sydney, NSW,\n                                                  2060</td>\n                                                </tr>\n                                                <tr>\n                                                  <td>(02) 5550 4444\n                                                  https://www.health.nsw.example.org/nsw-hospital</td>\n                                                </tr>\n                                            </tbody>\n                                        </table>\n                                    </td>\n                                </tr>\n                                <tr>\n                                    <td>\n                                        <table>\n                                            <thead>\n                                                <tr>\n                                                  <th colspan=\"2\" style=\"padding-top: 15px;                                                         vertical-align: top;                                                         text-align: center;                                                         margin 0px;                                                         font-family: Helvetica;                                                         font-size:14px;                                                         font-weight: bold;                                                         text-decoration: underline;                                                         text-align: left;                                                         word-wrap: break-word;\">Report Details</th>\n                                                </tr>\n                                            </thead>\n                                            <tbody>\n                                                <tr>\n                                                  <td style=\"font-weight: bold;\">Report\n                                                  Date/Time:</td>\n                                                  <td>06 Jan 2019 10:12</td>\n                                                </tr>\n                                                <tr>\n                                                  <td style=\"font-weight: bold;\">Report Name:</td>\n                                                  <td>Echocardiography - pre chemo</td>\n                                                </tr>\n                                                <tr>\n                                                  <td style=\"font-weight: bold;\">Report ID:</td>\n                                                  <td>3143079143</td>\n                                                </tr>\n                                                <tr>\n                                                  <td style=\"font-weight: bold;\">Report Status:</td>\n                                                  <td>Final</td>\n                                                </tr>\n                                                <tr>\n                                                  <td style=\"font-weight: bold;\">Diagnostice\n                                                  Service(s):</td>\n                                                  <td>Cardiac Ultrasound</td>\n                                                </tr>\n                                            </tbody>\n                                        </table>\n                                    </td>\n                                </tr>\n                            </tbody>\n                        </table>\n                        <h1 style=\" width: 100%;                             font-size: 17px;                             font-weight: bold;                             color: #000000;                             margin-bottom: 5px;                             margin-top: 0px;                             border-bottom: 1px SOLID #000000;;                             padding: 0px;                             word-wrap: break-word;\">Diagnostic Test / Investigation Results</h1>\n                        <table style=\"border-collapse:collapse;border-spacing:0;width:100%;\">\n                            <thead>\n                                <tr>\n                                    <th>\n                                        <tr style=\"background-color:#DCDCDC\">\n                                            <th style=\"padding-top: 15px;                                             vertical-align: top;                                             text-align: center;                                             margin 0px;                                             font-family: Helvetica;                                             font-size: 14px;                                             font-weight: bold;                                             text-align: left;                                             word-wrap: break-word;\">Test Name</th>\n                                            <th style=\"padding-top: 15px;                                                 vertical-align: top;                                                 text-align: center;                                                 margin 0px;                                                 font-family: Helvetica;                                                 font-size: 14px;                                                 font-weight: bold;                                                 text-align: left;                                                 word-wrap: break-word;\">Diagnostic Service</th>\n                                            <th style=\"padding-top: 15px;                                             vertical-align: top;                                             text-align: center;                                             margin 0px;                                             font-family: Helvetica;                                             font-weight: bold;                                             font-size: 14px;                                             text-align: left;                                             word-wrap: break-word;\">Test Date/Time</th>\n                                            <th style=\"padding-top: 15px;                                                 vertical-align: top;                                                 text-align: center;                                                 margin 0px;                                                 font-family: Helvetica;                                                 font-size: 14px;                                                 font-weight: bold;                                                 text-align: left;                                                 word-wrap: break-word;\">Status</th>\n                                        </tr>\n                                    </th>\n                                </tr>\n                            </thead>\n                            <tbody>\n                                <tbody>\n                                    <tr>\n                                        <td>Echocardiography</td>\n                                        <td>Cardiac Ultrasound</td>\n                                        <td>06 Jan 2019 09:45</td>\n                                        <td>Final</td>\n                                    </tr>\n                                </tbody>\n                            </tbody>\n                        </table>\n                        <p>\n                            <a href=\"https://github.com/AuDigitalHealth/ci-fhir-r4/tree/master/examples/Echocardiography-pre-chemo.pdf\">Link to PDF document</a>\n                        </p>\n                        <table style=\"border-collapse:collapse;border-spacing:0;width:100%;background-color:#696969\">\n                            <tbody>\n                                <tr>\n                                    <td colspan=\"9\" style=\"vertical-align: top;                             text-align: center;                             margin 0px;                             font-size: 15px;                             font-family: Helvetica;                             color: #FFFFFF;                             font-weight: bold;\">ADMINISTRATIVE DETAILS</td>\n                                </tr>\n                            </tbody>\n                        </table>\n                        <table style=\"border-collapse:collapse;border-spacing:0;width:100%;background-color:#DCDCDC\">\n                            <tbody>\n                                <tr>\n                                    <td>\n                                        <table>\n                                            <thead>\n                                                <tr>\n                                                  <th colspan=\"2\" style=\"padding-top: 15px;                                             vertical-align: top;                                             text-align: center;                                             margin 0px;                                             font-family: Helvetica;                                             font-size:14px;                                             font-weight: bold;                                             font-style: italic;                                             text-align: left;                                             word-wrap: break-word;\">Patient</th>\n                                                </tr>\n                                            </thead>\n                                            <tbody>\n                                                <tr>\n                                                  <td style=\"font-weight: bold; color:#808080\">Name</td>\n                                                  <td>Mr Wei ZHANG</td>\n                                                </tr>\n                                                <tr>\n                                                  <td style=\"font-weight: bold; color:#808080\">Gender</td>\n                                                  <td>Male</td>\n                                                </tr>\n                                                <tr>\n                                                  <td style=\"font-weight: bold; color:#808080\">Indigenous Status</td>\n                                                  <td>Neither Aboriginal nor Torres Strait Islander\n                                                  origin</td>\n                                                </tr>\n                                                <tr>\n                                                  <td style=\"font-weight: bold; color:#808080\">Date\n                                                  of Birth</td>\n                                                  <td>03 May 1969 (51y)</td>\n                                                </tr>\n                                                <tr>\n                                                  <td style=\"font-weight: bold; color:#808080\">IHI</td>\n                                                  <td>8003608000228437</td>\n                                                </tr>\n                                                <tr>\n                                                  <td style=\"font-weight: bold; color:#808080\">Medicare Number</td>\n                                                  <td>29533070311</td>\n                                                </tr>\n                                                <tr>\n                                                  <td style=\"font-weight: bold; color:#808080\">Country of Birth</td>\n                                                  <td>China</td>\n                                                </tr>\n                                                <tr>\n                                                  <td style=\"font-weight: bold; color:#808080\">Year\n                                                  of Arrival</td>\n                                                  <td>2017</td>\n                                                </tr>\n                                                <tr>\n                                                  <td style=\"font-weight: bold; color:#808080\">Interpreter Required</td>\n                                                  <td>Y (Cantonese)</td>\n                                                </tr>\n                                            </tbody>\n                                        </table>\n                                    </td>\n                                    <td>\n                                        <table>\n                                            <thead>\n                                                <tr>\n                                                  <th colspan=\"2\" style=\"padding-top: 15px;                                             vertical-align: top;                                             text-align: center;                                             margin 0px;                                             font-family: Helvetica;                                             font-size:14px;                                             font-style: italic;                                             font-weight: bold;                                             text-align: left;                                             word-wrap: break-word;\">Author</th>\n                                                </tr>\n                                            </thead>\n                                            <tbody>\n                                                <tr>\n                                                  <td style=\"font-weight: bold;color:#808080\">Name</td>\n                                                  <td>Dr Fredrika Bremer (Cardiologist) (HPI-I:\n                                                  8003608833357361)</td>\n                                                </tr>\n                                                <tr>\n                                                  <td style=\"font-weight: bold; color:#808080\">Phone</td>\n                                                  <td>(02) 5550 4111</td>\n                                                </tr>\n                                                <tr>\n                                                  <td style=\"font-weight: bold; color:#808080\">Organisation</td>\n                                                  <td>NSW Hospital - Cardiology (HPI-O:\n                                                  8003626566699734) (ABN: 41824753557)</td>\n                                                </tr>\n                                                <tr>\n                                                  <td style=\"font-weight: bold; color:#808080\">Work\n                                                  Place</td>\n                                                  <td>2325 Rocklands Rd, North Sydney NSW 2060</td>\n                                                </tr>\n                                            </tbody>\n                                        </table>\n                                        <table>\n                                            <thead>\n                                                <tr>\n                                                  <th colspan=\"2\" style=\"padding-top: 15px;                                             vertical-align: top;                                             text-align: center;                                             margin 0px;                                             font-family: Helvetica;                                             font-size:14px;                                             font-weight: bold;                                             font-style: italic;                                             text-align: left;                                             word-wrap: break-word;\">Clinical Document Details</th>\n                                                </tr>\n                                            </thead>\n                                            <tbody>\n                                                <tr>\n                                                  <td style=\"font-weight: bold; color:#808080\">Document Type</td>\n                                                  <td>42148-7 Echocardiography report</td>\n                                                </tr>\n                                                <tr>\n                                                  <td style=\"font-weight: bold; color:#808080\">Document Category</td>\n                                                  <td>26441-6 Cardiology studies</td>\n                                                </tr>\n                                                <tr>\n                                                  <td style=\"font-weight: bold; color:#808080\">Document Created Date/Time</td>\n                                                    <td>17 March 2020 11:46</td>\n                                                </tr>\n                                                <tr>\n                                                    <td style=\"font-weight: bold; color:#808080\">Date/Time Authored</td>\n                                                    <td>06 Jan 2019 10:12</td>\n                                                </tr>\n                                                <tr>\n                                                  <td style=\"font-weight: bold; color:#808080\">Date/Time Attested</td>\n                                                  <td>06 Jan 2019 10:12</td>\n                                                </tr>\n                                                <tr>\n                                                  <td style=\"font-weight: bold; color:#808080\">Document ID</td>\n                                                    <td>94f75158-f8b9-4c08-b96e-4306580c2add</td>\n                                                </tr>\n                                                <tr>\n                                                  <td style=\"font-weight: bold; color:#808080\">Document Business ID</td>\n                                                    <td>ca476713-74eb-4700-8ed6-f0087a5b513a</td>\n                                                </tr>\n                                                <tr>\n                                                  <td style=\"font-weight: bold; color:#808080\">Document Status</td>\n                                                  <td>Final</td>\n                                                </tr>\n                                            </tbody>\n                                        </table>\n                                    </td>\n                                </tr>\n                            </tbody>\n                        </table>\n                        <table style=\"border-collapse:collapse;border-spacing:0;width:100%;background-color:#696969\">\n                            <tbody>\n                                <tr>\n                                    <td colspan=\"9\" style=\"vertical-align: top;                             text-align: center;                             margin 0px;                             font-size: 15px;                             font-family: Helvetica;                             color: #FFFFFF;                             font-weight: bold;\">END OF DOCUMENT</td>\n                                </tr>\n                            </tbody>\n                        </table>\n                    </div>"
        },
        "identifier": {
          "system": "urn:ietf:rfc:3986",
          "value": "urn:uuid:ca476713-74eb-4700-8ed6-f0087a5b513a"
        },
        "status": "final",
        "type": {
          "coding": [
            {
              "system": "http://loinc.org",
              "code": "42148-7",
              "display": "US Heart"
            }
          ],
          "text": "Echocardiography report"
        },
        "category": [
          {
            "coding": [
              {
                "system": "http://loinc.org",
                "code": "26441-6",
                "display": "Cardiology studies (set)"
              }
            ]
          }
        ],
        "subject": {
          "reference": "urn:uuid:44c6f844-4f77-4d4e-8a20-a920d9f1137c"
        },
        "date": "2019-01-06T10:12:00+10:00",
        "author": [
          {
            "reference": "urn:uuid:46d552b7-88a9-427b-9d62-8b0727de91f9"
          }
        ],
        "title": "Echocardiography Report",
        "attester": [
          {
            "mode": "legal",
            "time": "2019-01-06T10:12:00+10:00",
            "party": {
              "reference": "urn:uuid:46d552b7-88a9-427b-9d62-8b0727de91f9"
            }
          }
        ],
        "custodian": {
          "reference": "urn:uuid:676a30d5-9c94-4c4d-8b52-e7cce26defed"
        },
        "section": [
          {
            "title": "Diagnostic Test / Investigation Results",
            "code": {
              "coding": [
                {
                  "system": "http://loinc.org",
                  "code": "30954-2"
                }
              ]
            },
            "text": {
              "status": "generated",
              "div": "<div xmlns=\"http://www.w3.org/1999/xhtml\" lang=\"en-AU\">\n                            <table border=\"1\">\n                                <thead>\n                                    <tr>\n                                        <th>Test Name</th>\n                                        <th>Diagnostic Service</th>\n                                        <th>Test Date/Time</th>\n                                        <th>Status</th>\n                                    </tr>\n                                </thead>\n                                <tbody>\n                                    <tr>\n                                        <td>Echocardiography</td>\n                                        <td>Cardiac Ultrasound</td>\n                                        <td>06 Jan 2019 09:45</td>\n                                        <td>Final</td>\n                                    </tr>\n                                </tbody>\n                            </table>\n                            <p>\n                                <a href=\"https://github.com/AuDigitalHealth/ci-fhir-r4/tree/master/examples/Echocardiography-pre-chemo.pdf\">Link to PDF document</a>\n                            </p>\n                        </div>"
            },
            "entry": [
              {
                "reference": "urn:uuid:ffa619c7-7324-4d68-b072-17c0179ac311"
              }
            ]
          }
        ]
      }
    },
    {
      "fullUrl": "urn:uuid:ffa619c7-7324-4d68-b072-17c0179ac311",
      "resource": {
        "resourceType": "DiagnosticReport",
        "id": "ffa619c7-7324-4d68-b072-17c0179ac311",
        "meta": {
          "profile": [
            "http://ns.electronichealth.net.au/ci/fhir/StructureDefinition/diagnosticreport-otherdiag-mhr-1"
          ]
        },
        "language": "en-AU",
        "text": {
          "status": "generated",
          "div": "<div xmlns=\"http://www.w3.org/1999/xhtml\" xml:lang=\"en-AU\" lang=\"en-AU\"><p><b>Generated Narrative</b></p></div>"
        },
        "identifier": [
          {
            "type": {
              "coding": [
                {
                  "system": "http://terminology.hl7.org/CodeSystem/v2-0203",
                  "code": "FILL",
                  "display": "Filler Identifier"
                }
              ]
            },
            "system": "http://ns.electronichealth.net.au/id/hpio-scoped/report/1.0/8003623233366565",
            "value": "3143079143"
          }
        ],
        "basedOn": [
          {
            "reference": "urn:uuid:edbc04cd-3387-435c-bda7-6e1a837b2590"
          }
        ],
        "status": "final",
        "category": [
          {
            "coding": [
              {
                "system": "http://terminology.hl7.org/CodeSystem/v2-0074",
                "code": "CUS",
                "display": "Cardiac Ultrasound"
              }
            ],
            "text": "Cardiac Ultrasound"
          }
        ],
        "code": {
          "coding": [
            {
              "system": "http://snomed.info/sct",
              "code": "40701008",
              "display": "Echocardiography"
            }
          ],
          "text": "Echocardiography"
        },
        "subject": {
          "reference": "urn:uuid:44c6f844-4f77-4d4e-8a20-a920d9f1137c"
        },
        "effectiveDateTime": "2019-01-06T09:45:00+10:00",
        "issued": "2019-01-06T10:12:00+10:00",
        "performer": [
          {
            "reference": "urn:uuid:46d552b7-88a9-427b-9d62-8b0727de91f9"
          },
          {
            "reference": "urn:uuid:04ac8978-bc60-4492-aa07-f62568ebe5c6"
          }
        ],
        "result": [
          {
            "reference": "urn:uuid:6685a24a-1606-4d1e-a212-fc456a71300f"
          }
        ],
        "presentedForm": [
          {
            "contentType": "application/pdf",
            "url": "https://github.com/AuDigitalHealth/ci-fhir-r4/tree/master/examples/Echocardiography-pre-chemo.pdf",
            "hash": "A0C18CCCD1DA713694A881EC7950F9505E156928",
            "title": "Echocardiography - pre chemo"
          }
        ]
      }
    },
    {
      "fullUrl": "urn:uuid:6685a24a-1606-4d1e-a212-fc456a71300f",
      "resource": {
        "resourceType": "Observation",
        "id": "6685a24a-1606-4d1e-a212-fc456a71300f",
        "text": {
          "status": "generated",
          "div": "<div xmlns=\"http://www.w3.org/1999/xhtml\"><p><b>Generated Narrative</b></p></div>"
        },
        "status": "final",
        "category": [
          {
            "coding": [
              {
                "system": "http://terminology.hl7.org/CodeSystem/v2-0074",
                "code": "CUS",
                "display": "Cardiac Ultrasound"
              }
            ]
          }
        ],
        "code": {
          "coding": [
            {
              "system": "http://snomed.info/sct",
              "code": "40701008",
              "display": "Echocardiography"
            }
          ],
          "text": "Echocardiography"
        },
        "subject": {
          "reference": "urn:uuid:44c6f844-4f77-4d4e-8a20-a920d9f1137c"
        },
        "effectiveDateTime": "2019-01-06T09:45:00+10:00"
      }
    },
    {
      "fullUrl": "urn:uuid:edbc04cd-3387-435c-bda7-6e1a837b2590",
      "resource": {
        "resourceType": "ServiceRequest",
        "id": "edbc04cd-3387-435c-bda7-6e1a837b2590",
        "text": {
          "status": "generated",
          "div": "<div xmlns=\"http://www.w3.org/1999/xhtml\"><p><b>Generated Narrative</b></p></div>"
        },
        "status": "completed",
        "intent": "order",
        "category": [
          {
            "coding": [
              {
                "system": "http://snomed.info/sct",
                "code": "276341003"
              }
            ],
            "text": "Cardiovascular investigation"
          }
        ],
        "code": {
          "coding": [
            {
              "system": "http://snomed.info/sct",
              "code": "40701008"
            }
          ],
          "text": "Echocardiography"
        },
        "subject": {
          "reference": "urn:uuid:44c6f844-4f77-4d4e-8a20-a920d9f1137c"
        },
        "authoredOn": "2019-01-05T00:00:00+10:00",
        "requester": {
          "reference": "urn:uuid:cb084861-dd87-48ff-b645-5cb620a00e8e",
          "display": "Dr David George"
        },
        "reasonCode": [
          {
            "text": "Pre-chemotherapy"
          }
        ]
      }
    },
    {
      "fullUrl": "urn:uuid:44c6f844-4f77-4d4e-8a20-a920d9f1137c",
      "resource": {
        "resourceType": "Patient",
        "id": "44c6f844-4f77-4d4e-8a20-a920d9f1137c",
        "text": {
          "status": "generated",
          "div": "<div xmlns=\"http://www.w3.org/1999/xhtml\"><p><b>Generated Narrative</b></p></div>"
        },
        "extension": [
          {
            "url": "http://hl7.org/fhir/StructureDefinition/patient-birthPlace",
            "valueAddress": {
              "text": "China",
              "country": "CHN"
            }
          },
          {
            "url": "http://hl7.org.au/fhir/StructureDefinition/indigenous-status",
            "valueCoding": {
              "system": "https://healthterminologies.gov.au/fhir/CodeSystem/australian-indigenous-status-1",
              "code": "4",
              "display": "Neither Aboriginal nor Torres Strait Islander origin"
            }
          },
          {
            "url": "http://hl7.org/fhir/StructureDefinition/patient-interpreterRequired",
            "valueBoolean": true
          },
          {
            "url": "http://hl7.org.au/fhir/StructureDefinition/date-of-arrival",
            "valueDate": "2017"
          }
        ],
        "identifier": [
          {
            "extension": [
              {
                "url": "http://hl7.org.au/fhir/StructureDefinition/ihi-status",
                "valueCoding": {
                  "system": "https://healthterminologies.gov.au/fhir/CodeSystem/ihi-status-1",
                  "code": "active"
                }
              },
              {
                "url": "http://hl7.org.au/fhir/StructureDefinition/ihi-record-status",
                "valueCoding": {
                  "system": "https://healthterminologies.gov.au/fhir/CodeSystem/ihi-record-status-1",
                  "code": "verified",
                  "display": "verified"
                }
              }
            ],
            "type": {
              "coding": [
                {
                  "system": "http://terminology.hl7.org/CodeSystem/v2-0203",
                  "code": "NI"
                }
              ],
              "text": "IHI"
            },
            "system": "http://ns.electronichealth.net.au/id/hi/ihi/1.0",
            "value": "8003608000228437"
          },
          {
            "type": {
              "coding": [
                {
                  "system": "http://terminology.hl7.org/CodeSystem/v2-0203",
                  "code": "MC"
                }
              ],
              "text": "Medicare Number"
            },
            "system": "http://ns.electronichealth.net.au/id/medicare-number",
            "value": "29533070311"
          }
        ],
        "name": [
          {
            "family": "Zhang",
            "given": [
              "Wei"
            ],
            "prefix": [
              "Mr"
            ]
          }
        ],
        "gender": "male",
        "birthDate": "1969-05-03",
        "_birthDate": {
          "extension": [
            {
              "url": "http://hl7.org.au/fhir/StructureDefinition/date-accuracy-indicator",
              "valueCoding": {
                "system": "https://healthterminologies.gov.au/fhir/CodeSystem/date-accuracy-indicator-1",
                "code": "AAA",
                "display": "Day, month and year are accurate"
              }
            }
          ]
        },
        "communication": [
          {
            "language": {
              "coding": [
                {
                  "system": "urn:ietf:bcp:47",
                  "code": "yue"
                }
              ],
              "text": "Cantonese"
            },
            "preferred": true
          }
        ]
      }
    },
    {
      "fullUrl": "urn:uuid:46d552b7-88a9-427b-9d62-8b0727de91f9",
      "resource": {
        "resourceType": "PractitionerRole",
        "id": "46d552b7-88a9-427b-9d62-8b0727de91f9",
        "text": {
          "status": "generated",
          "div": "<div xmlns=\"http://www.w3.org/1999/xhtml\"><p><b>Generated Narrative</b></p></div>"
        },
        "identifier": [
          {
            "type": {
              "coding": [
                {
                  "system": "http://terminology.hl7.org/CodeSystem/v2-0203",
                  "code": "NPI",
                  "display": "National provider identifier"
                }
              ],
              "text": "HPI-I"
            },
            "system": "http://ns.electronichealth.net.au/id/hi/hpii/1.0",
            "value": "8003608833357361"
          },
          {
            "type": {
              "coding": [
                {
                  "system": "http://terminology.hl7.org/CodeSystem/v2-0203",
                  "code": "EI",
                  "display": "Employee number"
                }
              ],
              "text": "Employee Number"
            },
            "system": "http://ns.electronichealth.net.au/id/abn-scoped/service-provider-individual/1.0/41824753557",
            "value": "NSW31u32-441",
            "assigner": {
              "display": "NSW Hospital"
            }
          }
        ],
        "practitioner": {
          "reference": "urn:uuid:d68312c9-b122-4fe5-8e3c-f550bd989f4b",
          "display": "Dr Fredrika Bremer"
        },
        "organization": {
          "reference": "urn:uuid:676a30d5-9c94-4c4d-8b52-e7cce26defed",
          "display": "NSW Hospital - Cardiology"
        },
        "code": [
          {
            "coding": [
              {
                "system": "http://snomed.info/sct",
                "code": "17561000",
                "display": "Cardiologist"
              }
            ],
            "text": "Cardiologist"
          }
        ]
      }
    },
    {
      "fullUrl": "urn:uuid:d68312c9-b122-4fe5-8e3c-f550bd989f4b",
      "resource": {
        "resourceType": "Practitioner",
        "id": "d68312c9-b122-4fe5-8e3c-f550bd989f4b",
        "text": {
          "status": "generated",
          "div": "<div xmlns=\"http://www.w3.org/1999/xhtml\"><p><b>Generated Narrative</b></p></div>"
        },
        "name": [
          {
            "use": "usual",
            "family": "Bremer",
            "given": [
              "Fredrika"
            ],
            "prefix": [
              "Dr."
            ]
          }
        ],
        "telecom": [
          {
            "system": "phone",
            "value": "(02) 5550 4111",
            "use": "work"
          }
        ]
      }
    },
    {
      "fullUrl": "urn:uuid:04ac8978-bc60-4492-aa07-f62568ebe5c6",
      "resource": {
        "resourceType": "PractitionerRole",
        "id": "04ac8978-bc60-4492-aa07-f62568ebe5c6",
        "text": {
          "status": "generated",
          "div": "<div xmlns=\"http://www.w3.org/1999/xhtml\"><p><b>Generated Narrative</b></p></div>"
        },
        "identifier": [
          {
            "type": {
              "coding": [
                {
                  "system": "http://terminology.hl7.org/CodeSystem/v2-0203",
                  "code": "NPI",
                  "display": "National provider identifier"
                }
              ],
              "text": "HPI-I"
            },
            "system": "http://ns.electronichealth.net.au/id/hi/hpii/1.0",
            "value": "8003616566708106"
          },
          {
            "type": {
              "coding": [
                {
                  "system": "http://terminology.hl7.org/CodeSystem/v2-0203",
                  "code": "EI",
                  "display": "Employee number"
                }
              ],
              "text": "Employee Number"
            },
            "system": "http://ns.electronichealth.net.au/id/abn-scoped/service-provider-individual/1.0/41824753557",
            "value": "NSW31u32-401",
            "assigner": {
              "display": "NSW Hospital"
            }
          }
        ],
        "practitioner": {
          "reference": "urn:uuid:e6de10ad-8dba-4250-8399-311da99e8c30",
          "display": "Ms Linda Howard"
        },
        "organization": {
          "reference": "urn:uuid:676a30d5-9c94-4c4d-8b52-e7cce26defed",
          "display": "NSW Hospital - Cardiology"
        },
        "code": [
          {
            "coding": [
              {
                "system": "http://snomed.info/sct",
                "code": "1012861000168100",
                "display": "Sonographer"
              }
            ],
            "text": "Sonographer"
          }
        ]
      }
    },
    {
      "fullUrl": "urn:uuid:e6de10ad-8dba-4250-8399-311da99e8c30",
      "resource": {
        "resourceType": "Practitioner",
        "id": "e6de10ad-8dba-4250-8399-311da99e8c30",
        "text": {
          "status": "generated",
          "div": "<div xmlns=\"http://www.w3.org/1999/xhtml\"><p><b>Generated Narrative</b></p></div>"
        },
        "name": [
          {
            "use": "usual",
            "family": "Bremer",
            "given": [
              "Fredrika"
            ],
            "prefix": [
              "Dr."
            ]
          }
        ],
        "telecom": [
          {
            "system": "phone",
            "value": "(02) 5550 4111",
            "use": "work"
          }
        ]
      }
    },
    {
      "fullUrl": "urn:uuid:676a30d5-9c94-4c4d-8b52-e7cce26defed",
      "resource": {
        "resourceType": "Organization",
        "id": "676a30d5-9c94-4c4d-8b52-e7cce26defed",
        "text": {
          "status": "generated",
          "div": "<div xmlns=\"http://www.w3.org/1999/xhtml\"><p><b>Generated Narrative</b></p></div>"
        },
        "identifier": [
          {
            "type": {
              "text": "ABN"
            },
            "system": "http://hl7.org.au/id/abn",
            "value": "41824753557"
          },
          {
            "type": {
              "coding": [
                {
                  "system": "http://terminology.hl7.org.au/CodeSystem/v2-0203",
                  "code": "NOI"
                }
              ],
              "text": "HPI-O"
            },
            "system": "http://ns.electronichealth.net.au/id/hi/hpio/1.0",
            "value": "8003626566699734"
          }
        ],
        "type": [
          {
            "coding": [
              {
                "system": "http://snomed.info/sct",
                "code": "22232009"
              },
              {
                "system": "http://terminology.hl7.org/CodeSystem/v3-RoleCode",
                "code": "HOSP"
              }
            ],
            "text": "Hospital"
          }
        ],
        "name": "NSW Hospital",
        "telecom": [
          {
            "system": "url",
            "value": "https://www.health.nsw.example.org/nsw-hospital"
          },
          {
            "system": "phone",
            "value": "(02) 5550 4444"
          }
        ],
        "address": [
          {
            "type": "physical",
            "text": "2325 Rocklands Rd, North Sydney NSW 2060",
            "line": [
              "2325 Rocklands Rd"
            ],
            "city": "North Sydney",
            "state": "NSW",
            "postalCode": "2060",
            "country": "AU"
          }
        ]
      }
    },
    {
      "fullUrl": "urn:uuid:cb084861-dd87-48ff-b645-5cb620a00e8e",
      "resource": {
        "resourceType": "PractitionerRole",
        "id": "cb084861-dd87-48ff-b645-5cb620a00e8e",
        "text": {
          "status": "generated",
          "div": "<div xmlns=\"http://www.w3.org/1999/xhtml\"><p><b>Generated Narrative</b></p></div>"
        },
        "identifier": [
          {
            "type": {
              "coding": [
                {
                  "system": "http://terminology.hl7.org/CodeSystem/v2-0203",
                  "code": "EI",
                  "display": "Employee number"
                }
              ],
              "text": "Employee Number"
            },
            "system": "http://www.health.nsw.example.org/nsw-hospital/fred-hope",
            "value": "123113",
            "assigner": {
              "display": "Fred Hope Cancer Centre"
            }
          },
          {
            "type": {
              "coding": [
                {
                  "system": "http://terminology.hl7.org/CodeSystem/v2-0203",
                  "code": "NPI",
                  "display": "National provider identifier"
                }
              ],
              "text": "HPI-I"
            },
            "system": "http://ns.electronichealth.net.au/id/hi/hpii/1.0",
            "value": "8003614900041243"
          }
        ],
        "practitioner": {
          "display": "Dr David George"
        },
        "organization": {
          "display": "Fred Hope Cancer Centre"
        },
        "code": [
          {
            "coding": [
              {
                "system": "http://snomed.info/sct",
                "code": "309295000"
              }
            ],
            "text": "Oncologist"
          }
        ]
      }
    }
  ]
}