{
  "resourceType": "Bundle",
  "id": "559b66ea-abbf-45fb-8627-554817830095",
  "meta": {
    "lastUpdated": "2020-03-17T11:46:00+11:00"
  },
  "type": "collection",
  "entry": [
    {
      "fullUrl": "urn:uuid:59033ee7-1950-4a04-abb3-6a232d5f62fd",
      "resource": {
        "resourceType": "DiagnosticReport",
        "id": "59033ee7-1950-4a04-abb3-6a232d5f62fd",
        "meta": {
          "profile": [
            "http://ns.electronichealth.net.au/ci/fhir/StructureDefinition/diagnosticreport-path-mhr-1"
          ]
        },
        "language": "en-AU",
        "text": {
          "status": "generated",
          "div": "<div xmlns=\"http://www.w3.org/1999/xhtml\" lang=\"en-AU\">\n                        <table style=\"border-collapse:collapse;border-spacing:0;width:100%;background-color:#000000\">\n                            <tr>\n                                <th colspan=\"9\" style=\"padding-top: 40px;                                     vertical-align: top;                                     text-align: center;                                     margin 0px;                                     font-size: 20px;                                     font-family: Helvetica;                                     color: #FFFFFF;                                     font-weight: bold;                                     word-wrap: break-word;\">Pathology Report</th>\n                            </tr>\n                            <tr>\n                                <td colspan=\"9\" style=\"vertical-align: top;                                     text-align: center;                                     margin 0px;                                     font-size: 15px;                                     font-family: Helvetica;                                     color: #FFFFFF;                                     font-weight: bold;\">17 Mar 2020 11:45</td>\n                            </tr>\n                            <tr>\n                                <td style=\"display: inline;                                      margin-right: 20px;                                      font-size: 13px;                                     color: #FFFFFF;\">Ms Sally <span class=\"bold\">FIELD</span></td>\n                                <td style=\"display: inline;                                     font-size: 11px;                                     color: #FFFFFF;\">DoB</td>\n                                <td style=\"margin-left: 0px;                                     display: inline;                                     font-size: 11px;                                     margin-right: 30px;                                     color: #FFFFFF;\">14 Feb 1984</td>\n                                <td style=\"display: inline;                                     font-size: 11px;                                     color: #FFFFFF;\">GENDER</td>\n                                <td style=\"margin-left: 0px;                                     display: inline;                                     font-size: 11px;                                     margin-right: 30px;                                     color: #FFFFFF;\">Female</td>\n                                <td style=\"display: inline;                                     font-size: 11px;                                     color: #FFFFFF;\">IHI</td>\n                                <td style=\"margin-left: 0px;                                     display: inline;                                     font-size: 11px;                                     margin-right: 30px;                                     color: #FFFFFF;\">8003 6080 0022 8437</td>\n                                <td style=\"display: inline;                                     font-size: 11px;                                     color: #FFFFFF;\">INDIGENOUS STATUS</td>\n                                <td style=\"margin-left: 0px;                                     display: inline;                                     font-size: 11px;                                     margin-right: 30px;                                     color: #FFFFFF;                                     word-wrap: break-word;\">Neither Aboriginal nor Torres Strait Islander origin</td>\n                            </tr>\n                        </table>\n                        <table style=\"width:100%\">\n                            <tbody>\n                                <tr>\n                                    <td style=\"width:50%\">\n                                        <table>\n                                            <thead>\n                                                <tr>\n                                                  <th colspan=\"1\" style=\"padding-top: 15px;                                                         vertical-align: top;                                                         text-align: center;                                                         margin 0px;                                                         font-family: Helvetica;                                                         font-size:14px;                                                         font-weight: bold;                                                         text-decoration: underline;                                                         text-align: left;                                                         word-wrap: break-word;\">Requester</th>\n                                                </tr>\n                                            </thead>\n                                            <tbody>\n                                                <tr>\n                                                  <td>Dr Greg Algregster (General Practitioner)\n                                                  (Employee ID: AMC-GA-001)</td>\n                                                </tr>\n                                                <tr>\n                                                  <td>Algregster Medical Center QLD</td>\n                                                </tr>\n                                            </tbody>\n                                        </table>\n                                        <table>\n                                            <thead>\n                                                <tr>\n                                                  <th colspan=\"2\" style=\"padding-top: 15px;                                                         vertical-align: top;                                                         text-align: center;                                                         margin 0px;                                                         font-family: Helvetica;                                                         font-size:14px;                                                         font-weight: bold;                                                         text-decoration: underline;                                                         text-align: left;                                                         word-wrap: break-word;\">Request Details</th>\n                                                </tr>\n                                            </thead>\n                                            <tbody>\n                                                <tr>\n                                                  <td style=\"font-weight: bold;\">Request ID:</td>\n                                                  <td>SR-34L6-804</td>\n                                                </tr>\n                                                <tr>\n                                                  <td style=\"font-weight: bold;\">Request\n                                                  Date/Time:</td>\n                                                  <td>16 Mar 2020 8:54</td>\n                                                </tr>\n                                                <tr>\n                                                  <td style=\"font-weight: bold;\">Requested\n                                                  Test:</td>\n                                                  <td>2019-Novel Coronavirus PCR</td>\n                                                </tr>\n                                            </tbody>\n                                        </table>\n                                    </td>\n                                    <td>\n                                        <table>\n                                            <thead>\n                                                <tr>\n                                                  <th colspan=\"2\" style=\"padding-top: 15px;                                                         vertical-align: top;                                                         text-align: center;                                                         margin 0px;                                                         font-family: Helvetica;                                                         font-size:14px;                                                         font-weight: bold;                                                         text-decoration: underline;                                                         text-align: left;                                                         word-wrap: break-word;\">Author</th>\n                                                </tr>\n                                            </thead>\n                                            <tbody>\n                                                <tr>\n                                                  <td>Dr Adam Meyer (Microbiologist) (HPI-I:\n                                                  8003619900041630)</td>\n                                                </tr>\n                                                <tr>\n                                                  <td>75 Hampden St, DOOMBEN, QLD, 4007</td>\n                                                </tr>\n                                                <tr>\n                                                  <td>(07) 7010 3453</td>\n                                                </tr>\n                                                <tr>\n                                                  <td/>\n                                                </tr>\n                                                <tr>\n                                                  <td>Doomben Pathology QLD (HPI-O:\n                                                  8003623233366565) (NATA: 100101)</td>\n                                                </tr>\n                                                <tr>\n                                                  <td>75 Hampden St, DOOMBEN, QLD, 4007</td>\n                                                </tr>\n                                                <tr>\n                                                  <td>(07) 5550 3427\n                                                  info@doombenpathlabs.example.com</td>\n                                                </tr>\n                                            </tbody>\n                                        </table>\n                                    </td>\n                                </tr>\n                                <tr>\n                                    <td>\n                                        <table>\n                                            <thead>\n                                                <tr>\n                                                  <th colspan=\"2\" style=\"padding-top: 15px;                                                         vertical-align: top;                                                         text-align: center;                                                         margin 0px;                                                         font-family: Helvetica;                                                         font-size:14px;                                                         font-weight: bold;                                                         text-decoration: underline;                                                         text-align: left;                                                         word-wrap: break-word;\">Report Details</th>\n                                                </tr>\n                                            </thead>\n                                            <tbody>\n                                                <tr>\n                                                  <td style=\"font-weight: bold;\">Report\n                                                  Date/Time:</td>\n                                                  <td>17 Mar 2020 11:45</td>\n                                                </tr>\n                                                <tr>\n                                                  <td style=\"font-weight: bold;\">Report Name:</td>\n                                                  <td>2019-Novel Coronavirus PCR</td>\n                                                </tr>\n                                                <tr>\n                                                  <td style=\"font-weight: bold;\">Report ID:</td>\n                                                  <td>DOO3Q978</td>\n                                                </tr>\n                                                <tr>\n                                                  <td style=\"font-weight: bold;\">Report Status:</td>\n                                                  <td>Final</td>\n                                                </tr>\n                                                <tr>\n                                                  <td style=\"font-weight: bold;\">Diagnostice\n                                                  Service(s):</td>\n                                                  <td>Microbiology</td>\n                                                </tr>\n                                            </tbody>\n                                        </table>\n                                    </td>\n                                </tr>\n                            </tbody>\n                        </table>\n                        <h1 style=\" width: 100%;                             font-size: 17px;                             font-weight: bold;                             color: #000000;                             margin-bottom: 5px;                             margin-top: 0px;                             border-bottom: 1px SOLID #000000;;                             padding: 0px;                             word-wrap: break-word;\">Test Results</h1>\n                        <table style=\"border-collapse:collapse;border-spacing:0;width:100%;\">\n                            <thead>\n                                <tr>\n                                    <th>\n                                        <tr>\n                                            <th style=\"padding-top: 15px;                                             vertical-align: top;                                             text-align: center;                                             margin 0px;                                             font-family: Helvetica;                                             font-weight: bold;                                             text-decoration: underline;                                             text-align: left;                                             word-wrap: break-word;\">Test Name</th>\n                                            <th style=\"padding-top: 15px;                                                 vertical-align: top;                                                 text-align: center;                                                 margin 0px;                                                 font-family: Helvetica;                                                 font-weight: bold;                                                 text-decoration: underline;                                                 text-align: left;                                                 word-wrap: break-word;\">Diagnostic Service</th>\n                                            <th style=\"padding-top: 15px;                                             vertical-align: top;                                             text-align: center;                                             margin 0px;                                             font-family: Helvetica;                                             font-weight: bold;                                             text-decoration: underline;                                             text-align: left;                                             word-wrap: break-word;\">Sample Collected Date/Time</th>\n                                            <th style=\"padding-top: 15px;                                                 vertical-align: top;                                                 text-align: center;                                                 margin 0px;                                                 font-family: Helvetica;                                                 font-weight: bold;                                                 text-decoration: underline;                                                 text-align: left;                                                 word-wrap: break-word;\">Status</th>\n                                        </tr>\n                                    </th>\n                                </tr>\n                            </thead>\n                            <tbody>\n                                <tbody>\n                                    <tr>\n                                        <td>2019-Novel Coronavirus PCR</td>\n                                        <td>Microbiology</td>\n                                        <td>16 Mar 2020 10:40:00</td>\n                                        <td>Final</td>\n                                    </tr>\n                                </tbody>\n                            </tbody>\n                        </table>\n                        <p>\n                            <a href=\"https://github.com/AuDigitalHealth/ci-fhir-r4/tree/master/examples/2019-Novel_Coronavirus_PCR.pdf\">Link to PDF document</a>\n                        </p>\n                    </div>"
        },
        "identifier": [
          {
            "type": {
              "coding": [
                {
                  "system": "http://terminology.hl7.org/CodeSystem/v2-0203",
                  "code": "FILL",
                  "display": "Filler Identifier"
                }
              ]
            },
            "system": "http://ns.electronichealth.net.au/id/hpio-scoped/report/1.0/8003623233366565",
            "value": "DOO3Q978"
          }
        ],
        "basedOn": [
          {
            "reference": "urn:uuid:f606666a-23bf-4947-87ba-688824c12c08"
          }
        ],
        "status": "final",
        "category": [
          {
            "coding": [
              {
                "system": "http://terminology.hl7.org/CodeSystem/v2-0074",
                "code": "LAB"
              }
            ]
          },
          {
            "coding": [
              {
                "system": "http://terminology.hl7.org/CodeSystem/v2-0074",
                "code": "MB"
              }
            ]
          }
        ],
        "code": {
          "coding": [
            {
              "system": "http://snomed.info/sct",
              "code": "1445431000168101",
              "display": "COVID-19 nucleic acid assay"
            }
          ],
          "text": "2019-Novel Coronavirus PCR"
        },
        "subject": {
          "reference": "urn:uuid:7e5a8c0a-4e93-4bbb-a369-22572c8a0c3c"
        },
        "effectiveDateTime": "2020-03-16T10:40:00+11:00",
        "issued": "2020-03-17T11:45:00+11:00",
        "performer": [
          {
            "reference": "urn:uuid:a971cabe-bab5-4e12-b6cb-39f526d17093"
          }
        ],
        "result": [
          {
            "reference": "urn:uuid:21b82b5b-9acc-49c8-8634-2fdb7b18b283"
          }
        ],
        "presentedForm": [
          {
            "contentType": "application/pdf",
            "url": "https://github.com/AuDigitalHealth/ci-fhir-r4/tree/master/examples/2019-Novel_Coronavirus_PCR.pdf",
            "hash": "9F692CB7D03EE6FE8E0500740446262F55FBADBC",
            "title": "2019-Novel Coronavirus PCR Report"
          }
        ]
      }
    },
    {
      "fullUrl": "urn:uuid:21b82b5b-9acc-49c8-8634-2fdb7b18b283",
      "resource": {
        "resourceType": "Observation",
        "id": "21b82b5b-9acc-49c8-8634-2fdb7b18b283",
        "text": {
          "status": "generated",
          "div": "<div xmlns=\"http://www.w3.org/1999/xhtml\"><p><b>Generated Narrative</b></p><p></p><p><b>category</b>: <span title=\"Codes: {http://terminology.hl7.org/CodeSystem/observation-category laboratory}\">Laboratory</span>, <span title=\"Codes: {http://terminology.hl7.org/CodeSystem/v2-0074 MB}\">Microbiology</span></p><p><b>code</b>: <span title=\"Codes: {http://snomed.info/sct 1445431000168101}\">2019-Novel Coronavirus PCR</span></p><p><b>subject</b>: <a href=\"#Patient_7e5a8c0a-4e93-4bbb-a369-22572c8a0c3c\">See above (Patient/7e5a8c0a-4e93-4bbb-a369-22572c8a0c3c)</a></p><p><b>effective</b>: 16 Mar 2020, 9:40:00 am</p></div>"
        },
        "status": "final",
        "category": [
          {
            "coding": [
              {
                "system": "http://terminology.hl7.org/CodeSystem/observation-category",
                "code": "laboratory"
              }
            ]
          },
          {
            "coding": [
              {
                "system": "http://terminology.hl7.org/CodeSystem/v2-0074",
                "code": "MB"
              }
            ]
          }
        ],
        "code": {
          "coding": [
            {
              "system": "http://snomed.info/sct",
              "code": "1445431000168101",
              "display": "COVID-19 nucleic acid assay"
            }
          ],
          "text": "2019-Novel Coronavirus PCR"
        },
        "subject": {
          "reference": "urn:uuid:7e5a8c0a-4e93-4bbb-a369-22572c8a0c3c"
        },
        "effectiveDateTime": "2020-03-16T10:40:00+11:00"
      }
    },
    {
      "fullUrl": "urn:uuid:f606666a-23bf-4947-87ba-688824c12c08",
      "resource": {
        "resourceType": "ServiceRequest",
        "id": "f606666a-23bf-4947-87ba-688824c12c08",
        "text": {
          "status": "generated",
          "div": "<div xmlns=\"http://www.w3.org/1999/xhtml\"><p><b>Generated Narrative</b></p><p><b>identifier</b>: Placer Identifier: SR-34L6-804</p><p><b>status</b>: completed</p><p><b>intent</b>: order</p><p><b>category</b>: <span title=\"Codes: {http://snomed.info/sct 108252007}\">Laboratory procedure</span></p><p><b>code</b>: <span title=\"Codes: {http://snomed.info/sct 1445431000168101}\">2019-Novel Coronavirus PCR</span></p><p><b>subject</b>: <a href=\"#Patient_7e5a8c0a-4e93-4bbb-a369-22572c8a0c3c\">See above (Patient/7e5a8c0a-4e93-4bbb-a369-22572c8a0c3c)</a></p><p><b>authoredOn</b>: 16 Mar 2020, 7:54:00 am</p><p><b>requester</b>: <a href=\"#PractitionerRole_f1d5844f-dd39-457d-867b-f50a00f91731\">See above (PractitionerRole/f1d5844f-dd39-457d-867b-f50a00f91731)</a></p></div>"
        },
        "identifier": [
          {
            "type": {
              "coding": [
                {
                  "system": "http://terminology.hl7.org/CodeSystem/v2-0203",
                  "code": "PLAC",
                  "display": "Placer Identifier"
                }
              ]
            },
            "system": "http://ns.electronichealth.net.au/id/hpio-scoped/order/1.0/8003621566699776",
            "value": "SR-34L6-804"
          }
        ],
        "status": "completed",
        "intent": "order",
        "category": [
          {
            "coding": [
              {
                "system": "http://snomed.info/sct",
                "code": "108252007",
                "display": "Laboratory procedure"
              }
            ]
          }
        ],
        "code": {
          "coding": [
            {
              "system": "http://snomed.info/sct",
              "code": "1445431000168101",
              "display": "COVID-19 nucleic acid assay"
            }
          ],
          "text": "2019-Novel Coronavirus PCR"
        },
        "subject": {
          "reference": "urn:uuid:7e5a8c0a-4e93-4bbb-a369-22572c8a0c3c"
        },
        "authoredOn": "2020-03-16T08:54:00+11:00",
        "requester": {
          "reference": "urn:uuid:f1d5844f-dd39-457d-867b-f50a00f91731"
        }
      }
    },
    {
      "fullUrl": "urn:uuid:7e5a8c0a-4e93-4bbb-a369-22572c8a0c3c",
      "resource": {
        "resourceType": "Patient",
        "id": "7e5a8c0a-4e93-4bbb-a369-22572c8a0c3c",
        "text": {
          "status": "extensions",
          "div": "<div xmlns=\"http://www.w3.org/1999/xhtml\"><p><b>Generated Narrative</b></p><p><b>Australian Indigeneous Status</b>: <span title=\"{https://healthterminologies.gov.au/fhir/CodeSystem/australian-indigenous-status-1 4}\">Neither Aboriginal nor Torres Strait Islander origin</span></p><p><b>identifier</b>: National unique individual identifier: 8003608333563104 (OFFICIAL)</p><p><b>name</b>: Sally FIELD </p><p><b>gender</b>: female</p><p><b>birthDate</b>: 1984-02-14</p></div>"
        },
        "extension": [
          {
            "url": "http://hl7.org.au/fhir/StructureDefinition/indigenous-status",
            "valueCoding": {
              "system": "https://healthterminologies.gov.au/fhir/CodeSystem/australian-indigenous-status-1",
              "code": "4",
              "display": "Neither Aboriginal nor Torres Strait Islander origin"
            }
          }
        ],
        "identifier": [
          {
            "use": "official",
            "type": {
              "coding": [
                {
                  "system": "http://terminology.hl7.org/CodeSystem/v2-0203",
                  "code": "NI",
                  "display": "National unique individual identifier"
                }
              ]
            },
            "system": "http://ns.electronichealth.net.au/id/hi/ihi/1.0",
            "value": "8003608333563104"
          }
        ],
        "name": [
          {
            "use": "usual",
            "family": "FIELD",
            "given": [
              "Sally"
            ],
            "prefix": [
              "Ms"
            ]
          }
        ],
        "gender": "female",
        "birthDate": "1984-02-14"
      }
    },
    {
      "fullUrl": "urn:uuid:a971cabe-bab5-4e12-b6cb-39f526d17093",
      "resource": {
        "resourceType": "PractitionerRole",
        "id": "a971cabe-bab5-4e12-b6cb-39f526d17093",
        "text": {
          "status": "generated",
          "div": "<div xmlns=\"http://www.w3.org/1999/xhtml\"><p><b>Generated Narrative</b></p><p><b>identifier</b>: HPI-I: 8003619900041630</p><p><b>practitioner</b>: <a href=\"#Practitioner_21bf7f1d-f171-45ff-9f6d-3481f48ad468\">See above (Practitioner/21bf7f1d-f171-45ff-9f6d-3481f48ad468)</a></p><p><b>organization</b>: <a href=\"#Organization_e0c5fa86-2184-4a5b-8c47-041422643440\">See above (Organization/e0c5fa86-2184-4a5b-8c47-041422643440)</a></p><p><b>code</b>: <span title=\"Codes: {http://snomed.info/sct 159138004}\">Microbiologist</span></p></div>"
        },
        "identifier": [
          {
            "type": {
              "coding": [
                {
                  "system": "http://terminology.hl7.org/CodeSystem/v2-0203",
                  "code": "NPI",
                  "display": "National provider identifier"
                }
              ],
              "text": "HPI-I"
            },
            "system": "http://ns.electronichealth.net.au/id/hi/hpii/1.0",
            "value": "8003619900041630"
          }
        ],
        "practitioner": {
          "reference": "urn:uuid:21bf7f1d-f171-45ff-9f6d-3481f48ad468"
        },
        "organization": {
          "reference": "urn:uuid:e0c5fa86-2184-4a5b-8c47-041422643440"
        },
        "code": [
          {
            "coding": [
              {
                "system": "http://snomed.info/sct",
                "code": "159138004"
              }
            ],
            "text": "Microbiologist"
          }
        ]
      }
    },
    {
      "fullUrl": "urn:uuid:21bf7f1d-f171-45ff-9f6d-3481f48ad468",
      "resource": {
        "resourceType": "Practitioner",
        "id": "21bf7f1d-f171-45ff-9f6d-3481f48ad468",
        "text": {
          "status": "generated",
          "div": "<div xmlns=\"http://www.w3.org/1999/xhtml\"><p><b>Generated Narrative</b></p><p><b>name</b>: Adam Meyer </p><p><b>telecom</b>: ph: (07) 7010 3453(WORK)</p><p><b>address</b>: 75 Hampden St DOOMBEN QLD 4007 AU (WORK)</p></div>"
        },
        "name": [
          {
            "use": "usual",
            "family": "Meyer",
            "given": [
              "Adam"
            ],
            "prefix": [
              "Dr."
            ]
          }
        ],
        "telecom": [
          {
            "system": "phone",
            "value": "(07) 7010 3453",
            "use": "work"
          }
        ],
        "address": [
          {
            "use": "work",
            "line": [
              "75 Hampden St"
            ],
            "city": "DOOMBEN",
            "state": "QLD",
            "postalCode": "4007",
            "country": "AU"
          }
        ]
      }
    },
    {
      "fullUrl": "urn:uuid:e0c5fa86-2184-4a5b-8c47-041422643440",
      "resource": {
        "resourceType": "Organization",
        "id": "e0c5fa86-2184-4a5b-8c47-041422643440",
        "text": {
          "status": "generated",
          "div": "<div xmlns=\"http://www.w3.org/1999/xhtml\"><p><b>Generated Narrative</b></p><p><b>identifier</b>: HPI-O: 8003623233366565, NATA Accreditation Number: 100101</p><p><b>type</b>: <span title=\"Codes: {http://www.abs.gov.au/ausstats/abs@.nsf/mf/1292.0 8520}\">Pathology Laboratory</span></p><p><b>name</b>: Doomben Pathology QLD</p><p><b>telecom</b>: <a href=\"mailto:info@doombenpathlabs.example.com\">info@doombenpathlabs.example.com</a>, ph: (07) 5550 3427(WORK)</p><p><b>address</b>: 75 Hampden St DOOMBEN QLD 4007 AU (WORK)</p></div>"
        },
        "identifier": [
          {
            "type": {
              "coding": [
                {
                  "system": "http://terminology.hl7.org.au/CodeSystem/v2-0203",
                  "code": "NOI"
                }
              ],
              "text": "HPI-O"
            },
            "system": "http://ns.electronichealth.net.au/id/hi/hpio/1.0",
            "value": "8003623233366565"
          },
          {
            "type": {
              "text": "NATA Accreditation Number"
            },
            "system": "http://hl7.org.au/id/nata-accreditation",
            "value": "100101"
          }
        ],
        "type": [
          {
            "coding": [
              {
                "system": "http://www.abs.gov.au/ausstats/abs@.nsf/mf/1292.0",
                "code": "8520",
                "display": "Pathology and Diagnostic Imaging Services"
              }
            ],
            "text": "Pathology Laboratory"
          }
        ],
        "name": "Doomben Pathology QLD",
        "telecom": [
          {
            "system": "email",
            "value": "info@doombenpathlabs.example.com",
            "use": "work"
          },
          {
            "system": "phone",
            "value": "(07) 5550 3427",
            "use": "work"
          }
        ],
        "address": [
          {
            "use": "work",
            "type": "physical",
            "line": [
              "75 Hampden St"
            ],
            "city": "DOOMBEN",
            "state": "QLD",
            "postalCode": "4007",
            "country": "AU"
          }
        ]
      }
    },
    {
      "fullUrl": "urn:uuid:f1d5844f-dd39-457d-867b-f50a00f91731",
      "resource": {
        "resourceType": "PractitionerRole",
        "id": "f1d5844f-dd39-457d-867b-f50a00f91731",
        "text": {
          "status": "generated",
          "div": "<div xmlns=\"http://www.w3.org/1999/xhtml\"><p><b>Generated Narrative</b></p><p><b>identifier</b>: Employee Number: AMC-GA-001</p><p><b>practitioner</b>: <span>Dr Greg Algregster</span></p><p><b>organization</b>: <span>Algregster Medical Center QLD</span></p><p><b>code</b>: <span title=\"Codes: {http://snomed.info/sct 62247001}\">General Practitioner</span></p></div>"
        },
        "identifier": [
          {
            "type": {
              "coding": [
                {
                  "system": "http://terminology.hl7.org/CodeSystem/v2-0203",
                  "code": "EI",
                  "display": "Employee number"
                }
              ],
              "text": "Employee Number"
            },
            "system": "http://ns.electronichealth.net.au/id/hpio-scoped/service-provider-individual/1.0/8003621566699776",
            "value": "AMC-GA-001",
            "assigner": {
              "display": "Algregster Medical Center QLD"
            }
          }
        ],
        "practitioner": {
          "display": "Dr Greg Algregster"
        },
        "organization": {
          "display": "Algregster Medical Center QLD"
        },
        "code": [
          {
            "coding": [
              {
                "system": "http://snomed.info/sct",
                "code": "62247001"
              }
            ],
            "text": "General Practitioner"
          }
        ]
      }
    }
  ]
}