<ExplanationOfBenefit xmlns="http://hl7.org/fhir">
	<id value="9b28d09f-ba17-11ec-833a-b1763b0a7715"/>
	<!--R4 conversion of MDS test data ExplanationOfBenefit.id 9b28d09f-ba17-11ec-833a-b1763b0a7715-->
	<meta>
		<profile value="http://ns.electronichealth.net.au/fhir/StructureDefinition/dh-explanationofbenefit-medicare-pbs-1"/>
	</meta>
	<contained>
		<MedicationRequest>
			<id value="9b28d0a2-ba17-11ec-833a-b1763b0a7715"/>
			<status value="unknown"/>
			<intent value="order"/>
			<medicationReference>
				<reference value="#9b28d0a1-ba17-11ec-833a-b1763b0a7715"/>
			</medicationReference>
			<subject>
				<identifier>
					<type>
						<coding>
							<system value="http://terminology.hl7.org/CodeSystem/v2-0203"/>
							<code value="NI"/>
							<display value="National unique individual identifier"/>
						</coding>
						<text value="IHI"/>
					</type>
					<system value="http://ns.electronichealth.net.au/id/hi/ihi/1.0"/>
					<value value="8003608833630130"/>
				</identifier>
			</subject>
			<authoredOn value="2022-04-08"/>
			<dispenseRequest>
				<quantity>
					<value value="10"/>
				</quantity>
			</dispenseRequest>
		</MedicationRequest>
	</contained>
	<contained>
		<Medication>
			<id value="9b28d0a1-ba17-11ec-833a-b1763b0a7715"/>
			<extension url="http://hl7.org.au/fhir/StructureDefinition/medication-generic-name">
				<valueString value="BENZYLPENICILLIN"/>
			</extension>
			<extension url="http://hl7.org.au/fhir/StructureDefinition/medication-brand-name">
				<valueString value="BENPEN"/>
			</extension>
			<code>
				<coding>
					<system value="urn:oid:1.2.36.1.2001.1005.22"/>
					<version value="v1.0"/>
					<code value="02647H"/>
					<display value="BENZYLPENICILLIN"/>
				</coding>
			</code>
			<manufacturer>
				<identifier>
					<system value="urn:oid:1.2.36.1.2001.1005.23"/>
					<value value="CS"/>
				</identifier>
			</manufacturer>
		</Medication>
	</contained>
	<!--identifier for the PBR record from Medicare repository-->
	<identifier>
		<system value="urn:ietf:rfc:3986"/>
		<value value="urn:oid:1.2.36.1.2001.1007.11.8003608833630130.1000000000017396" />
	</identifier>
	<status value="active"/>
	<type>
		<coding>
			<system value="http://terminology.hl7.org/CodeSystem/claim-type"/>
			<code value="pharmacy"/>
			<display value="Pharmacy"/>
		</coding>
	</type>
	<subType>
		<coding>
			<system
				value="https://healthterminologies.gov.au/fhir/CodeSystem/australian-benefit-payment-category-1"/>
			<code value="pbs"/>
		</coding>
	</subType>
	<use value="claim"/>
	<patient>
		<identifier>
			<type>
				<coding>
					<system value="http://terminology.hl7.org/CodeSystem/v2-0203"/>
					<code value="NI"/>
					<display value="National unique individual identifier"/>
				</coding>
				<text value="IHI"/>
			</type>
			<system value="http://ns.electronichealth.net.au/id/hi/ihi/1.0"/>
			<value value="8003608833630130"/>
		</identifier>
	</patient>
	<created value="2020-01-16"/>
	<insurer>
		<display value="Australian Government Department of Health"/>
	</insurer>
	<provider>
		<extension url="http://hl7.org/fhir/StructureDefinition/data-absent-reason">
			<valueCode value="unknown"/>
		</extension>
	</provider>
	<prescription>
		<reference value="#9b28d0a2-ba17-11ec-833a-b1763b0a7715"/>
	</prescription>
	<outcome value="complete"/>
	<insurance>
		<focal value="true"/>
		<coverage>
				<extension url="http://hl7.org/fhir/StructureDefinition/data-absent-reason">
					<valueCode value="unknown"/>
				</extension>
		</coverage>
	</insurance>
	<item>
		<sequence value="1"/>
		<category>
			<coding>
				<system
					value="https://healthterminologies.gov.au/fhir/CodeSystem/australian-benefit-payment-category-1"/>
				<code value="pbs"/>
				<display value="PBS"/>
			</coding>
		</category>
		<productOrService>
			<coding>
				<system value="urn:oid:1.2.36.1.2001.1005.22"/>
				<version value="v1.0"/>
				<code value="02647H"/>
				<display value="BENZYLPENICILLIN"/>
			</coding>
		</productOrService>
		<servicedDate value="2020-01-16"/>
	</item>
</ExplanationOfBenefit>
