<ExplanationOfBenefit xmlns="http://hl7.org/fhir">
	<id value="pbs-cont-01"/>
	<meta>
		<profile value="http://ns.electronichealth.net.au/fhir/StructureDefinition/dh-explanationofbenefit-medicare-pbs-1"/>
	</meta>
	<contained>
		<MedicationRequest>
			<id value="claim-pbs-01"/>
			<status value="unknown"/>
			<intent value="order"/>
			<medicationReference>
				<reference value="#cephalexin-01"/>
			</medicationReference>
			<subject>
				<identifier>
					<type>
						<coding>
							<system value="http://terminology.hl7.org/CodeSystem/v2-0203"/>
							<code value="NI"/>
							<display value="National unique individual identifier"/>
						</coding>
						<text value="IHI"/>
					</type>
					<system value="http://ns.electronichealth.net.au/id/hi/ihi/1.0"/>
					<value value="8003608833357361"/>
				</identifier>
			</subject>
			<authoredOn value="2020-01-15"/>
			<dispenseRequest>
				<numberOfRepeatsAllowed value="1"/>
				<quantity>
					<value value="500"/>
					<unit value="tablet"/>
				</quantity>
			</dispenseRequest>
		</MedicationRequest>
	</contained>
	<contained>
		<Medication>
			<id value="cephalexin-01"/>
			<code>
				<coding>
					<system value="urn:oid:1.2.36.1.2001.1005.22"/>
					<code value="03119E"/>
					<display value="cephalexin 500 mg capsule, 20"/>
				</coding>
			</code>
			<manufacturer>
				<identifier>
					<system value="http://pbs.gov.au/code/manufacturer"/>
					<value value="MM"/>
				</identifier>
			</manufacturer>
		</Medication>
	</contained>
	<!--identifier for the PBR record from Medicare repository-->
	<identifier>
		<system value="urn:ietf:rfc:3986"/>
		<value value="urn:uuid:296dcbd7-d763-4ecf-aa78-523bcc11ecda" />
	</identifier>
	<status value="active"/>
	<type>
		<coding>
			<system value="http://terminology.hl7.org/CodeSystem/claim-type"/>
			<code value="pharmacy"/>
		</coding>
	</type>
	<subType>
		<coding>
			<system
				value="https://healthterminologies.gov.au/fhir/CodeSystem/australian-benefit-payment-category-1"/>
			<code value="pbs"/>
		</coding>
	</subType>
	<use value="claim"/>
	<patient>
		<identifier>
			<type>
				<coding>
					<system value="http://terminology.hl7.org/CodeSystem/v2-0203"/>
					<code value="NI"/>
					<display value="National unique individual identifier"/>
				</coding>
				<text value="IHI"/>
			</type>
			<system value="http://ns.electronichealth.net.au/id/hi/ihi/1.0"/>
			<value value="8003608833357361"/>
		</identifier>
	</patient>
	<created value="2020-01-16"/>
	<insurer>
		<display value="Australian Government Department of Health"/>
	</insurer>
	<provider>
		<identifier>
			<type>
				<coding>
					<system value="http://terminology.hl7.org/CodeSystem/v2-0203"/>
					<code value="NPI"/>
					<display value="National provider identifier"/>
				</coding>
				<text value="HPI-I"/>
			</type>
			<system value="http://ns.electronichealth.net.au/id/hi/hpii/1.0"/>
			<value value="8003611566708354"/>
		</identifier>
		<display value="Mr. Representative Pharmacist at Test Org -DigitalHealth 6 Pharmacy"/>
	</provider>
	<prescription>
		<reference value="#claim-pbs-01"/>
	</prescription>
	<outcome value="complete"/>
	<insurance>
		<focal value="true"/>
		<coverage>
			<identifier>
				<type>
					<coding>
						<system value="http://terminology.hl7.org/CodeSystem/v2-0203"/>
						<code value="MC"/>
					</coding>
					<text value="Medicare Number"/>
				</type>
				<system value="http://ns.electronichealth.net.au/id/medicare-number"/>
				<value value="3951032981"/>
			</identifier>
		</coverage>
	</insurance>
	<item>
		<sequence value="1"/>
		<category>
			<coding>
				<system
					value="https://healthterminologies.gov.au/fhir/CodeSystem/australian-benefit-payment-category-1"/>
				<code value="pbs"/>
				<display value="PBS"/>
			</coding>
		</category>
		<productOrService>
			<coding>
				<system value="urn:oid:1.2.36.1.2001.1005.22"/>
				<code value="03119E"/>
				<display value="cephalexin 500 mg capsule, 20"/>
			</coding>
		</productOrService>
		<servicedDate value="2020-01-16"/>
	</item>
</ExplanationOfBenefit>
