<ExplanationOfBenefit xmlns="http://hl7.org/fhir">
	<id value="mbs-mds"/>
	<!--R4 conversion of MDS test data ExplanationOfBenefit.id d46a4133-ba17-11ec-833a-b1763b0a7715-->
	<meta>
		<profile value="http://ns.electronichealth.net.au/fhir/StructureDefinition/dh-explanationofbenefit-medicare-mbs-1"/>
	</meta>
	<contained>
		<PractitionerRole>
			<id value="01"/>
			<practitioner>
				<reference value="#02"/>
			</practitioner>
			<code>
				<coding>
					<system value="http://www.abs.gov.au/ausstats/abs@.nsf/mf/1220.0"/>
					<code value="250000"/>
				</coding>
				<text value="Health Professional"/>
			</code>
		</PractitionerRole>
	</contained>
	<contained>
		<Practitioner>
			<id value="02"/>
			<name>
				<use value="usual"/>
				<family value="KILLER"/>
				<given value="PAIN"/>
				<prefix value="DR"/>
			</name>
		</Practitioner>
	</contained>
	<identifier>
		<system value="urn:ietf:rfc:3986"/>
		<value value="urn:oid:1.2.36.1.2001.1007.11.8003640002000043.1000000000041358" />
	</identifier>
	<status value="active"/>
	<type>
		<coding>
			<system value="http://terminology.hl7.org/CodeSystem/claim-type"/>
			<code value="institutional"/>
		</coding>
	</type>
	<subType>
		<coding>
			<system value="https://healthterminologies.gov.au/fhir/CodeSystem/australian-benefit-payment-category-1"/>
			<code value="mbs"/>
		</coding>
	</subType>
	<use value="claim"/>
	<patient>
		<identifier>
			<type>
				<coding>
					<system value="http://terminology.hl7.org/CodeSystem/v2-0203"/>
					<code value="NI"/>
					<display value="National unique individual identifier"/>
				</coding>
				<text value="IHI"/>
			</type>
			<system value="http://ns.electronichealth.net.au/id/hi/ihi/1.0"/>
			<value value="8003608833630130"/>
		</identifier>
	</patient>
	<created value="2022-04-07"/>
	<insurer>
		<reference value="Organization/healthau"/>
	</insurer>
	<provider>
		<reference value="#01"/>
	</provider>
	<outcome value="complete"/>
	<insurance>
		<focal value="true"/>
		<coverage>
				<extension url="http://hl7.org/fhir/StructureDefinition/data-absent-reason">
					<valueCode value="unknown"/>
				</extension>
		</coverage>
	</insurance>
	<item>
		<sequence value="1"/>
		<category>
			<coding>
				<system value="https://healthterminologies.gov.au/fhir/CodeSystem/australian-benefit-payment-category-1"/>
				<code value="mbs"/>
				<display value="MBS"/>
			</coding>
			<text value="Medicare Benefits Schedule"/>
		</category>
		<productOrService>
			<coding>
				<system value="urn:oid:1.2.36.1.2001.1005.21"/>
				<code value="00023"/>
				<display value="CONSULTATION AT CONSULTING ROOMS - LEVEL 'B'."/>
			</coding>
		</productOrService>
		<servicedDate value="2022-04-07"/>
	</item>
</ExplanationOfBenefit>
