<?xml version="1.0" encoding="UTF-8"?>
<Composition xmlns="http://hl7.org/fhir">
    <id value="phn-01"/>
    <meta>
        <profile value="http://ns.electronichealth.net.au/fhir/StructureDefinition/dh-composition-phn-1"/>
    </meta>
    <language value="en-AU"/>
    <contained>
        <Patient>
            <id value="hi-testdata-priest-mac"/>
            <identifier>
                <use value="official"/>
                <type>
                    <coding>
                        <system value="http://terminology.hl7.org/CodeSystem/v2-0203"/>
                        <code value="NI"/>
                        <display value="National unique individual identifier"/>
                    </coding>
                </type>
                <system value="http://ns.electronichealth.net.au/id/hi/ihi/1.0"/>
                <value value="8003608333563104"/>
            </identifier>
            <identifier>
                <type>
                    <coding>
                        <system value="http://terminology.hl7.org/CodeSystem/v2-0203"/>
                        <code value="MC"/>
                        <display value="Patient&#39;s Medicare Number"/>
                    </coding>
                    <text value="Medicare Number"/>
                </type>
                <system value="http://ns.electronichealth.net.au/id/medicare-number"/>
                <value value="2953307121"/>
                <period>
                    <end value="2024-03-31"/>
                </period>
            </identifier>
            <name>
                <family value="PRIEST"/>
                <given value="Mac"/>
            </name>
            <gender value="male"/>    
            <birthDate value="1989-03-09"/>
            <address>
                <use value="home"/>
                <type value="physical"/>
                <line value="55 Council Pnt"/>
                <city value="ASHTONFIELD"/>
                <state value="NSW"/>
                <postalCode value="2323"/>
            </address>
        </Patient>
    </contained>
    <contained>
        <Organization>
            <id value="mhr-operator"/>
            <identifier>
                <type>
                    <coding>
                        <system value="http://terminology.hl7.org.au/CodeSystem/v2-0203"/>
                        <code value="NOI"/>
                        <display value="National Organisation Identifier"/>
                    </coding>
                    <text value="PAI-O"/>
                </type>
                <system value="http://ns.electronichealth.net.au/id/pcehr/paio/1.0"/>
                <value value="8003640001000036"/>
            </identifier>
        </Organization>
    </contained>
    <identifier>
        <system value="urn:ietf:rfc:3986"/>
        <value value="urn:uuid:0b4e2b56-70c9-4c79-ba4f-a7596a9feefa"/>
    </identifier>
    <status value="final"/>
    <type>
        <coding>
            <system
                value="https://healthterminologies.gov.au/fhir/CodeSystem/nctis-data-components-1"/>
            <code value="100.16681"/>
            <display value="Personal Health Notes"/>
        </coding>
    </type>
    <category>
        <coding>
            <system
                value="https://healthterminologies.gov.au/fhir/CodeSystem/nctis-data-components-1"/>
            <code value="100.16681"/>
            <display value="Personal Health Notes"/>
        </coding>
    </category>
    <subject>
        <reference value="#hi-testdata-priest-mac"/>
        <identifier>
            <type>
                <coding>
                    <system value="http://terminology.hl7.org/CodeSystem/v2-0203"/>
                    <code value="MC"/>
                    <display value="Patient&#39;s Medicare Number"/>
                </coding>
                <text value="Medicare Number"/>
            </type>
            <system value="http://ns.electronichealth.net.au/id/medicare-number"/>
            <value value="2953307121"/>
            <period>
                <end value="2024-03-31"/>
            </period>
        </identifier>
    </subject>
    <date value="2017-06-21T09:00:15+10:00"/>
    <author>
        <reference value="#hi-testdata-priest-mac"/>
        <identifier>
            <type>
                <coding>
                    <system value="http://terminology.hl7.org/CodeSystem/v2-0203"/>
                    <code value="MC"/>
                    <display value="Patient&#39;s Medicare Number"/>
                </coding>
                <text value="Medicare Number"/>
            </type>
            <system value="http://ns.electronichealth.net.au/id/medicare-number"/>
            <value value="2953307121"/>
            <period>
                <end value="2024-03-31"/>
            </period>
        </identifier>
    </author>
    <title value="Personal Health Notes"/>
    <custodian>
        <reference value="#mhr-operator"/>
        <identifier>
            <type>
                <coding>
                    <system value="http://terminology.hl7.org.au/CodeSystem/v2-0203"/>
                    <code value="NOI"/>
                    <display value="National Organisation Identifier"/>
                </coding>
                <text value="PAI-O"/>
            </type>
            <system value="http://ns.electronichealth.net.au/id/pcehr/paio/1.0"/>
            <value value="8003640001000036"/>
        </identifier>
    </custodian>
    <section>
        <title value="My Health Notes"/>
        <code>
            <coding>
                <system
                    value="https://healthterminologies.gov.au/fhir/CodeSystem/nctis-data-components-1"/>
                <code value="102.15513"/>
                <display value="Notes"/>
            </coding>
        </code>
        <text>
            <status value="additional"/>
            <div xmlns="http://www.w3.org/1999/xhtml">
                <p>
                    <b>My Diabetes</b>
                </p>
                <p>I saw my doctor today and he said my last test results were getting better, but
                    he was still not happy with my diet. I should go back to that nice dietician
                    Kate again.</p>
            </div>
        </text>
    </section>
</Composition>
