<?xml version="1.0" encoding="UTF-8"?>
<Bundle xmlns="http://hl7.org/fhir">
    <id value="psml-01"/>
    <meta>
        <lastUpdated value="2019-08-12T10:30:00+10:00"/>
        <profile value="http://ns.electronichealth.net.au/ci/fhir/StructureDefinition/dh-bundle-payload-1"/>
        <profile value="http://ns.electronichealth.net.au/ci/fhir/StructureDefinition/dh-bundle-core-1"/>
    </meta>
    <identifier>
        <system value="urn:ietf:rfc:3986"/>
        <value value="urn:uuid:c509a28d-521f-476d-b5d6-254896d6ab8b"/>
    </identifier>
    <type value="collection"/>
    <!--<timestamp value="2019-08-12T10:30:00+10:00"/>-->
    <entry>
        <fullUrl value="urn:uuid:d3d6cdc2-8e76-45a7-a825-169d68938724"/>
        <resource>
            <Encounter>
                <id value="d3d6cdc2-8e76-45a7-a825-169d68938724"/>
                <status value="finished"/>
                <class>
                    <system value="http://terminology.hl7.org/CodeSystem/v3-ActCode"/>
                    <code value="AMB"/>
                    <display value="ambulatory"/>                    
                </class>
                <type>
                    <coding>
                        <system value="http://snomed.info/sct"/>
                        <code value="1348961000168104"/>
                        <display value="Community pharmacy medicines review"/>
                    </coding>
                    <text value="Medicines review"/>
                </type>
                <serviceType>
                    <coding>
                        <system value="http://snomed.info/sct"/>
                        <code value="182836005"/>
                        <display value="Review of medication"/>
                    </coding>
                    <text value="Medicines review"/>
                </serviceType>
                <subject>
                    <!-- logical reference to Patient -->
                    <identifier>
                        <type>
                            <coding>
                                <system value="http://terminology.hl7.org/CodeSystem/v2-0203"/>
                                <code value="NI"/>
                            </coding>
                            <text value="IHI"/>
                        </type>
                        <system value="http://ns.electronichealth.net.au/id/hi/ihi/1.0"/>
                        <value value="8003608000228445"/>
                    </identifier>
                </subject>
                <participant>
                    <type>
                        <coding>
                            <system value="http://terminology.hl7.org/CodeSystem/v3-ParticipationType"/>
                            <code value="PPRF"/>
                            <display value="primary performer"/>   
                        </coding>
                    </type>
                    <individual>
                        <!-- logical reference to PractitionerRole -->
                        <identifier>
                            <type>
                                <coding>
                                    <system value="http://terminology.hl7.org/CodeSystem/v2-0203"/>
                                    <code value="NPI"/>
                                    <display value="National provider identifier"/>
                                </coding>
                                <text value="HPI-I"/>
                            </type>
                            <system value="http://ns.electronichealth.net.au/id/hi/hpii/1.0"/>
                            <value value="8003619900041630"/>
                        </identifier>
                    </individual>
                </participant>
                <period>
                    <start value="2019-08-12T09:00:00+10:00"/>
                    <end value="2019-08-12T10:30:00+10:00"/>
                </period>
            </Encounter>
        </resource>
    </entry>
    <entry>
        <fullUrl value="urn:uuid:bda4e2f7-1304-448f-b281-b5041f2a87ce"/>
        <resource>
            <AllergyIntolerance>
                <id value="bda4e2f7-1304-448f-b281-b5041f2a87ce"/>
                <clinicalStatus>
                    <coding>
                        <system value="http://terminology.hl7.org/CodeSystem/allergyintolerance-clinical"/>
                        <code value="active"/>
                        <display value="Active"/>
                    </coding>
                </clinicalStatus>
                <verificationStatus>
                    <coding>
                        <system value="http://terminology.hl7.org/CodeSystem/allergyintolerance-verification"/>
                        <code value="unconfirmed"/>
                        <display value="Unconfirmed"/>
                    </coding>
                </verificationStatus>
                <code>
                    <coding>
                        <system value="http://snomed.info/sct"/>
                        <code value="716186003"/>
                        <display value="No known allergy"/>
                    </coding>
                    <text value="No known allergies"/>
                </code>
                <patient>
                    <!-- logical reference to Patient -->
                    <identifier>
                        <type>
                            <coding>
                                <system value="http://terminology.hl7.org/CodeSystem/v2-0203"/>
                                <code value="NI"/>
                            </coding>
                            <text value="IHI"/>
                        </type>
                        <system value="http://ns.electronichealth.net.au/id/hi/ihi/1.0"/>
                        <value value="8003608000228445"/>
                    </identifier>
                </patient>
                <encounter>
                    <reference value="urn:uuid:d3d6cdc2-8e76-45a7-a825-169d68938724"/>
                </encounter>
                <recorder>
                    <!-- logical reference to PractitionerRole -->
                    <identifier>
                        <type>
                            <coding>
                                <system value="http://terminology.hl7.org/CodeSystem/v2-0203"/>
                                <code value="NPI"/>
                                <display value="National provider identifier"/>
                            </coding>
                            <text value="HPI-I"/>
                        </type>
                        <system value="http://ns.electronichealth.net.au/id/hi/hpii/1.0"/>
                        <value value="8003619900041630"/>
                    </identifier>
                </recorder>
                <asserter>
                    <!-- logical reference to Patient -->
                    <identifier>
                        <type>
                            <coding>
                                <system value="http://terminology.hl7.org/CodeSystem/v2-0203"/>
                                <code value="NI"/>
                            </coding>
                            <text value="IHI"/>
                        </type>
                        <system value="http://ns.electronichealth.net.au/id/hi/ihi/1.0"/>
                        <value value="8003608000228445"/>
                    </identifier>
                </asserter>
            </AllergyIntolerance>
        </resource>
    </entry>
    <entry>
        <fullUrl value="urn:uuid:25193325-9340-4707-858f-d248c8a2a446"/>
        <resource>
            <List>
                <id value="25193325-9340-4707-858f-d248c8a2a446"/>
                <meta>
                    <profile value="http://ns.electronichealth.net.au/ci/fhir/StructureDefinition/dh-list-medication-use-pmr-1"/>
                </meta>
                <language value="en-AU"/>
                <status value="current"/>
                <mode value="snapshot"/>
                <title value="Current Medicines"/>
                <code>
                    <coding>
                        <system value="https://healthterminologies.gov.au/fhir/CodeSystem/nctis-data-components-1"/>
                        <code value="101.32009"/>
                        <display value="Current Medicines"/>
                    </coding>
                </code>
                <subject>
                    <!-- logical reference to Patient -->
                    <identifier>
                        <type>
                            <coding>
                                <system value="http://terminology.hl7.org/CodeSystem/v2-0203"/>
                                <code value="NI"/>
                            </coding>
                            <text value="IHI"/>
                        </type>
                        <system value="http://ns.electronichealth.net.au/id/hi/ihi/1.0"/>
                        <value value="8003608000228445"/>
                    </identifier>
                </subject>
                <encounter>
                    <reference value="urn:uuid:d3d6cdc2-8e76-45a7-a825-169d68938724"/>
                </encounter>
                <date value="2019-08-12"/>
                <source>
                    <!-- logical reference to PractitionerRole -->
                    <identifier>
                        <type>
                            <coding>
                                <system value="http://terminology.hl7.org/CodeSystem/v2-0203"/>
                                <code value="NPI"/>
                                <display value="National provider identifier"/>
                            </coding>
                            <text value="HPI-I"/>
                        </type>
                        <system value="http://ns.electronichealth.net.au/id/hi/hpii/1.0"/>
                        <value value="8003619900041630"/>
                    </identifier>
                </source>
                <entry>
                    <flag>
                        <coding>
                            <system value="http://terminology.hl7.org.au/CodeSystem/medicine-item-change"/>
                            <code value="nochange"/>
                            <display value="Unchanged"/>
                        </coding>
                    </flag>
                    <item>
                        <reference value="urn:uuid:72013c32-9d20-473b-97ea-f1b0481b2452"/>
                    </item>
                </entry>
                <entry>
                    <extension url="http://hl7.org.au/fhir/StructureDefinition/change-description">
                        <valueString value="Laxative for constipation."/>
                    </extension>
                    <flag>
                        <coding>
                            <system value="http://terminology.hl7.org.au/CodeSystem/medicine-item-change"/>
                            <code value="new"/>
                            <display value="New"/>
                        </coding>
                    </flag>
                    <item>
                        <reference value="urn:uuid:bf8ce573-f675-4ce2-8c32-e58b595534f8"/>
                    </item>
                </entry>
                <entry>
                    <extension url="http://hl7.org.au/fhir/StructureDefinition/change-description">
                        <valueString value="Dose increased"/>
                    </extension>
                    <flag>
                        <coding>
                            <system value="http://terminology.hl7.org.au/CodeSystem/medicine-item-change"/>
                            <code value="amended"/>
                            <display value="Amended"/>
                        </coding>
                    </flag>
                    <item>
                        <reference value="urn:uuid:7f235139-5e54-4e8a-9fb4-4c5521c6c0b6"/>
                    </item>
                </entry>
            </List>
        </resource>
    </entry>
    <entry>
        <fullUrl value="urn:uuid:72013c32-9d20-473b-97ea-f1b0481b2452"/>
        <resource>
            <MedicationStatement>
                <id value="72013c32-9d20-473b-97ea-f1b0481b2452"/>
                <status value="active"/>
                <medicationReference>
                    <reference value="urn:uuid:94297b10-a865-4f14-89af-d5e6155732d9"/>
                </medicationReference>
                <subject>
                    <!-- logical reference to Patient -->
                    <identifier>
                        <type>
                            <coding>
                                <system value="http://terminology.hl7.org/CodeSystem/v2-0203"/>
                                <code value="NI"/>
                            </coding>
                            <text value="IHI"/>
                        </type>
                        <system value="http://ns.electronichealth.net.au/id/hi/ihi/1.0"/>
                        <value value="8003608000228445"/>
                    </identifier>
                </subject>
                <context>
                    <reference value="urn:uuid:d3d6cdc2-8e76-45a7-a825-169d68938724"/>
                </context>
                <reasonCode>
                    <text value="To reduce high blood pressure; treat heart failure after a heart attack; prevent
                            progresion of kidney failure; reduce the risk of
                            heart attack, stroke and stenting"/>
                </reasonCode>
                <dosage>
                    <text value="Take one tablet in the morning daily."/>
                </dosage>
            </MedicationStatement>
        </resource>
    </entry>
    <entry>
        <fullUrl value="urn:uuid:bf8ce573-f675-4ce2-8c32-e58b595534f8"/>
        <resource>
            <MedicationStatement>
                <id value="bf8ce573-f675-4ce2-8c32-e58b595534f8"/>
                <status value="active"/>
                <medicationReference>
                    <reference value="urn:uuid:288fc669-726f-4df1-a4fd-da095ae9a716"/>
                </medicationReference>
                <subject>
                    <!-- logical reference to Patient -->
                    <identifier>
                        <type>
                            <coding>
                                <system value="http://terminology.hl7.org/CodeSystem/v2-0203"/>
                                <code value="NI"/>
                            </coding>
                            <text value="IHI"/>
                        </type>
                        <system value="http://ns.electronichealth.net.au/id/hi/ihi/1.0"/>
                        <value value="8003608000228445"/>
                    </identifier>
                </subject>
                <context>
                    <reference value="urn:uuid:d3d6cdc2-8e76-45a7-a825-169d68938724"/>
                </context>
                <reasonCode>
                    <coding>
                        <system value="http://snomed.info/sct"/>
                        <code value="14760008"/>
                        <display value="Constipation"/>
                    </coding>
                    <text value="Laxative for constipation, works by softening the stools and also assists by
                        stimulating the gut to achieve bowel movements."/>
                </reasonCode>
                <dosage>
                    <text value="Take two tablets twice a day."/>
                </dosage>
            </MedicationStatement>
        </resource>
    </entry>
    <entry>
        <fullUrl value="urn:uuid:7f235139-5e54-4e8a-9fb4-4c5521c6c0b6"/>
        <resource>
            <MedicationStatement>
                <id value="7f235139-5e54-4e8a-9fb4-4c5521c6c0b6"/>
                <status value="active"/>
                <medicationReference>
                    <reference value="urn:uuid:8252d431-5db1-43f4-8e94-e22de10663fa"/>
                </medicationReference>
                <subject>
                    <!-- logical reference to Patient -->
                    <identifier>
                        <type>
                            <coding>
                                <system value="http://terminology.hl7.org/CodeSystem/v2-0203"/>
                                <code value="NI"/>
                            </coding>
                            <text value="IHI"/>
                        </type>
                        <system value="http://ns.electronichealth.net.au/id/hi/ihi/1.0"/>
                        <value value="8003608000228445"/>
                    </identifier>
                </subject>
                <context>
                    <reference value="urn:uuid:d3d6cdc2-8e76-45a7-a825-169d68938724"/>
                </context>
                <reasonCode>
                    <coding>
                        <system value="http://snomed.info/sct"/>
                        <code value="428346000"/>
                        <display value="Pain relief by medication"/>
                    </coding>
                    <text value="For relief of moderate to severe pain"/>
                </reasonCode>
                <dosage>
                    <text value="Take one to two tablets every four hours when required."/>
                </dosage>
            </MedicationStatement>
        </resource>
    </entry>
    <entry>
        <fullUrl value="urn:uuid:94297b10-a865-4f14-89af-d5e6155732d9"/>
        <resource>
            <Medication>
                <extension url="http://hl7.org.au/fhir/StructureDefinition/medication-brand-name">
                    <valueString value="Tritace"/>
                </extension>
                <code>
                    <text value="Tritace"/>
                </code>
            </Medication>
        </resource>
    </entry>
    <entry>
        <fullUrl value="urn:uuid:288fc669-726f-4df1-a4fd-da095ae9a716"/>
        <resource>
            <Medication>
                <code>
                    <coding>
                        <system value="http://snomed.info/sct"/>
                        <code value="33690011000036100"/>
                        <display value="docusate sodium 50 mg + sennoside B 8 mg tablet"/>
                    </coding>
                    <text value="docusate sodium 50 mg + sennoside B 8 mg tablet"/>
                </code>
            </Medication>
        </resource>
    </entry>
    <entry>
        <fullUrl value="urn:uuid:8252d431-5db1-43f4-8e94-e22de10663fa"/>
        <resource>
            <Medication>
                <extension url="http://hl7.org.au/fhir/StructureDefinition/medication-brand-name">
                    <valueString value="Endone"/>
                </extension>
                <extension url="http://hl7.org.au/fhir/StructureDefinition/medication-generic-name">
                    <valueString value="Oxycodone"/>
                </extension>
                <code>
                    <coding>
                        <system value="http://pbs.gov.au/code/item"/>
                        <code value="5195K"/>
                        <display value="oxycodone hydrochloride 5 mg tablet, 20"/>
                    </coding>
                    <coding>
                        <system value="http://pbs.gov.au/code/item"/>
                        <code value="2622B"/>
                        <display value="OXYCODONE"/>
                    </coding>
                    <text value="Endone Oxycodone"/>
                </code>
            </Medication>
        </resource>
    </entry>
</Bundle>
