<?xml version="1.0" encoding="UTF-8"?>
<Bundle xmlns="http://hl7.org/fhir">
    <id value="0e2357c2-1317-40db-857a-b7162ec3dda8"/>
    <meta>
        <lastUpdated value="2020-06-21T11:46:00+10:00"/>
    </meta>
    <type value="collection"/>
    <!--DiagnosticReport-->
    <entry>
        <fullUrl value="urn:uuid:b980048e-890c-4a4a-afbb-87742509dfb5"/>
        <resource>
            <DiagnosticReport>
                <id value="b980048e-890c-4a4a-afbb-87742509dfb5"/>
                <meta>
                    <profile
                        value="http://ns.electronichealth.net.au/ci/fhir/StructureDefinition/diagnosticreport-otherdiag-atomic-1"
                    />
                </meta>
                <language value="en-AU"/>
                <!--WORKAROUND: The contents of DiagnosticReport.text are a workaround to enable the tooling used to generate this implementation guide
                to generate a human friendly rendering instead of forcing the reader to refer to XML or JSON format to view the full example narrative.
                The contents below is not consitent with good or recommended practice. -->
                <text>
                    <status value="generated"/>
                    <div xmlns="http://www.w3.org/1999/xhtml" lang="en-AU">
                        <h1>NSW CARDIOVASCULAR GROUP</h1>
                        <h2>ECHOCARDIOGRAPHY REPORT</h2>
                        <p>Phone: 1300 975 708</p>
                        <hr style="background-color:#000000"/>
                        <table>
                            <tbody>
                                <tr>
                                    <td style="width:50%">
                                        <table>
                                            <tbody>
                                                <tr>
                                                  <td>Name</td>
                                                  <td>Mr Wei Zhang</td>
                                                </tr>
                                                <tr>
                                                  <td>Address</td>
                                                  <td>6 Macquarie Street, Sydney, NSW, 2000</td>
                                                </tr>
                                                <tr>
                                                  <td>DOB</td>
                                                  <td>03/05/1969</td>
                                                </tr>
                                                <tr>
                                                  <td>Gender</td>
                                                  <td>Male</td>
                                                </tr>
                                                <tr>
                                                  <td>Indigenous Status</td>
                                                  <td>Neither Aboriginal nor Torres Strait Islander
                                                  origin</td>
                                                </tr>
                                                <tr>
                                                  <td>
                                                  <p/>
                                                  </td>
                                                  <td>
                                                  <p/>
                                                  </td>
                                                </tr>
                                                <tr>
                                                  <td>
                                                  <p/>
                                                  </td>
                                                  <td>
                                                  <p/>
                                                  </td>
                                                </tr>
                                                <tr>
                                                  <td>Test</td>
                                                  <td>Echocardiography</td>
                                                </tr>
                                                <tr>
                                                  <td>Requested</td>
                                                  <td>05/01/2019 0:00</td>
                                                </tr>
                                                <tr>
                                                  <td>Collected</td>
                                                  <td>06/01/2019 09:45</td>
                                                </tr>
                                                <tr>
                                                  <td>Reported</td>
                                                  <td>06/01/2019 10:12</td>
                                                </tr>
                                            </tbody>
                                        </table>
                                    </td>
                                    <td style="width:50%">
                                        <table>
                                            <tbody>
                                                <tr>
                                                  <td>File ID</td>
                                                  <td>2338172</td>
                                                </tr>
                                                <tr>
                                                  <td>Medicare No.</td>
                                                  <td>29533070311</td>
                                                </tr>
                                                <tr>
                                                  <td>IHI</td>
                                                  <td>8003608000228437</td>
                                                </tr>
                                                <tr>
                                                  <td>Country of birth</td>
                                                  <td>China</td>
                                                </tr>
                                                <tr>
                                                  <td>Year of arrival</td>
                                                  <td>2017</td>
                                                </tr>
                                                <tr>
                                                  <td>Interpeter required?</td>
                                                  <td>Y (Cantonese)</td>
                                                </tr>
                                                <tr>
                                                  <td>
                                                  <p/>
                                                  </td>
                                                  <td>
                                                  <p/>
                                                  </td>
                                                </tr>
                                                <tr>
                                                  <td>Laboratory Enquiries #</td>
                                                  <td>3143079143</td>
                                                </tr>
                                                <tr>
                                                  <td>
                                                  <p/>
                                                  </td>
                                                  <td>
                                                  <p/>
                                                  </td>
                                                </tr>
                                                <tr>
                                                  <td>Requested by</td>
                                                  <td>Dr David George (Oncologist)</td>
                                                </tr>
                                            </tbody>
                                        </table>
                                    </td>
                                </tr>
                            </tbody>
                        </table>
                        <hr style="background-color:#000000"/>
                        <hr style="background-color:#000000"/>
                        <table>
                            <tr>
                                <td style="width:10%"><h4>ID</h4></td>
                                <td style="width:20%"><h4>Observation</h4></td>
                                <td style="width:70%"><h4>Value</h4></td>
                            </tr>
                            <tr>
                                <td>3143079143</td>
                                <td>Echocardiography</td>
                                <td>
                                    <p>NSW CARDIOVASCULAR GROUP</p>
                                    <p>ECHOCARDIOGRAPHY REPORT</p>
                                    <p>Phone: 1300 975 708</p>
                                </td>
                            </tr>
                            <tr>
                                <td/>
                                <td/>
                                <td>
                                    <p><b>Patient Name:</b> Mr Zhang Wei</p>
                                    <p><b>Date of Birth:</b> 03/05/1969</p>
                                    <p><b>Ht/Wt/BSA:</b> 174 cm, 72 kg, 2.05 m2.</p>
                                </td>
                            </tr>
                            <tr>
                                <td/>
                                <td/>
                                <td>
                                    <p><b>Date of Study:</b> 06/01/2019</p>
                                    <p><b>Site:</b> NSW Hospital - Cardiology</p>
                                </td>
                            </tr>
                            <tr>
                                <td/>
                                <td/>
                                <td>
                                    <p><b>Indications:</b> Pre-chemotherapy.</p>
                                </td>
                            </tr>
                            <tr>
                                <td/>
                                <td/>
                                <td>
                                    <p><b>Sonographer:</b> Ms Linda Howard</p>
                                    <p><b>Referring physician:</b> Dr David George</p>
                                </td>
                            </tr>
                            <tr>
                                <td/>
                                <td/>
                                <td>
                                    <p/>
                                    <p/>
                                </td>
                            </tr>
                            <tr>
                                <td/>
                                <td/>
                                <td>
                                    <p><b>Summary:</b></p>
                                    <p>1. Normal left ventricular size. LV vol 119 ml.</p>
                                    <p>2. Normal overall left ventricular systolic function. EF = 61
                                        %.</p>
                                    <p>3. There were no resting regional wall motion abnormalities
                                        detected.</p>
                                    <p>4. Normal GLS (Global Longitudinal Strain) —21 %.</p>
                                    <p>5. Normal right ventricular size and systolic function.</p>
                                    <p>6. Mildly dilated Left atrium. 21 cm2.</p>
                                    <p>7. Mild dilatation of the aortic root (43mm).</p>
                                    <p>8. Mild aortic valve sclerosis without stenosis.</p>
                                    <p>9. Trivial (0—1/4) mitral valve regurgitation.</p>
                                    <p>10. Trivial (0—1/4) tricuspid regurgitation.</p>
                                    <p>11.Normal pulmonary artery systolic pressure. RVSP = 23
                                        mmHg.</p>
                                    <p>12. The interatrial septum appears intact.</p>
                                    <p>13. Normal pericardium.</p>
                                    <p>14. Patient was in sinus bradycardia at a rate of 54 bpm.</p>
                                </td>
                            </tr>
                            <tr>
                                <td/>
                                <td/>
                                <td>
                                    <p style="font-weight: bold;">CARDIOLOGISTS INTERPRETATION:</p>
                                    <p>Patient was in sinus bradycardia at a rate of 54 bpm.</p>
                                </td>
                            </tr>
                            <tr>
                                <td/>
                                <td/>
                                <td>
                                    <p><b>Left Ventricle:</b> The left ventricular internal cavity size was
                                        normal. LV vol 119 ml. Overall LV systolic function was
                                        normal. EF = 61 % . No evidence of left ventricular
                                        hypertrophy. There were no resting regional wall motion
                                        abnormalities detected. Indeterminant LV filling pressure
                                        based E/e' ratio = 8 %. Normal GLS (Global Longitudinal
                                        Strain) = —21 % Philips Epiq 5c.</p>
                                </td>
                            </tr>
                            <tr>
                                <td/>
                                <td/>
                                <td>
                                    <p><b>Right Ventricle:</b> Normal right ventricular size, wall
                                        thickness, and systolic function. RV S' 11 cm/s.</p>
                                </td>
                            </tr>
                            <tr>
                                <td/>
                                <td/>
                                <td>
                                    <p><b>Left Atrium:</b> The left atrium was mildly dilated. 21 cm2.</p>
                                </td>
                            </tr>
                            <tr>
                                <td/>
                                <td/>
                                <td>
                                    <p><b>Right Atrium:</b> The right atrium was at the upper limits of
                                        normal dimension. 20 cm2.</p>
                                </td>
                            </tr>
                            <tr>
                                <td/>
                                <td/>
                                <td>
                                    <p><b>Pericardium:</b> The pericardium appears normal.</p>
                                </td>
                            </tr>
                            <tr>
                                <td/>
                                <td/>
                                <td>
                                    <p><b>Aortic Valve:</b> The aortic valve was tricuspid. There was mild
                                        aortic valve sclerosis, with no evidence of aortic valve
                                        stenosis. PPG 6 mmHg MPG 4 mmHg, AVA 4. 6 cm2. No evidence
                                        of aortic valve regurgitation was seen. Resting LVOFT SV =
                                        115 ml. Indexed = 56 ml/m2.</p>
                                </td>
                            </tr>
                            <tr>
                                <td/>
                                <td/>
                                <td>
                                    <p><b>Mitral Valve:</b> The mitral valve is sclerotic. Trivial (0—1/4)
                                        mitral valve regurgitation was seen.</p>
                                </td>
                            </tr>
                            <tr>
                                <td/>
                                <td/>
                                <td>
                                    <p><b>Tricuspid Valve:</b> The tricuspid valve was normal in structure.
                                        Trivial (O—1/4) tricuspid regurgitation was visualised. The
                                        tricuspid regurgitant velocity is 2.2 m/s, and with an
                                        assumed right atrial pressure of 3 mmHg, the estimated right
                                        ventricular systolic pressure normal at 23 mmHg.</p>
                                </td>
                            </tr>
                            <tr>
                                <td/>
                                <td/>
                                <td>
                                    <p><b>Pulmonic Valve:</b> Structurally normal pulmonic valve, with
                                        normal leaflet excursion.</p>
                                </td>
                            </tr>
                            <tr>
                                <td/>
                                <td/>
                                <td>
                                    <p><b>Aorta:</b> There is mild dilatation of the aortic root. The trans
                                        sinus diameter measures at 4.3 cm. The ascending aorta
                                        measures at 3.6 cm.</p>
                                </td>
                            </tr>
                            <tr>
                                <td/>
                                <td/>
                                <td>
                                    <p><b>Shunts:</b> The interatrial septum appears intact.</p>
                                </td>
                            </tr>
                            <tr>
                                <td/>
                                <td/>
                                <td>
                                    <p><b>Reported By:</b> Dr Fredrika Bremer (Cardiologist)</p>
                                    <p style="font-weight: bold;">This letter has been electronically approved.</p>
                                </td>
                            </tr>
                            <tr>
                                <td/>
                                <td/>
                                <td>
                                    <p/>
                                    <p/>
                                </td>
                            </tr>
                            <tr>
                                <td/>
                                <td/>
                                <td>
                                    <p style="font-weight: bold;">CALCULATIONS &amp; MEASUREMENTS - ECHO</p>
                                </td>
                            </tr>
                            <tr>
                                <td/>
                                <td/>
                                <td>
                                    <p style="font-weight: bold;">2D and M—MODE MEASUREMENTS (normal ranges within parentheses):</p>
                                    <p><b>Left ventricle 2D:</b> IVS d 0.7 cm. LVPW d 0.6 cm. LVID d 6.2
                                        cm. LVID s 4.0 cm. LVFS 35 %. LVEF 2D 64 % .</p>
                                    <p><b>Atrial Areas/Volume:</b> LA Area = 21 cm2. RA Area 20 cm2.</p>
                                </td>
                            </tr>
                            <tr>
                                <td/>
                                <td/>
                                <td>
                                    <p style="font-weight: bold;">LV SYSTOLIC FUNCTION:</p>
                                    <p>LV vol 119 ml. LV vol (BSA/SEX) ULN 152 mls. LV EF = 61
                                        %.</p>
                                </td>
                            </tr>
                            <tr>
                                <td/>
                                <td/>
                                <td>
                                    <p style="font-weight: bold;">LV DIASTOLIC FUNCTION:</p>
                                    <p>MV Peak = 0.6 m/s, MV Peak A = 0.5 m/ s, Decel Time 240 msec,
                                        MV A dur = 121 msec.</p>
                                    <p>E' MV Ann = 7 cm/ s, E/e' ratio = 8, E/A Ratio = 1.2.</p>
                                    <p>RUPV A Vmax = 0.3 m/s, RUPV S Vmax = 0.5 m/s, RUPV D Vmax =
                                        0.4 m/s.</p>
                                </td>
                            </tr>
                            <tr>
                                <td/>
                                <td/>
                                <td>
                                    <p style="font-weight: bold;">SPECTRAL DOPPLER ANALYSIS (where applicable):</p>
                                    <p><b>Mitral Valve:</b> MV P1/2 Time = 69.6 msec. MV area, PHT 3.2
                                        cm2.</p>
                                    <p><b>Aortic Valve:</b> AoV Max Vel = 1.2 m/s, AoV Peak PG = 6 mmHg,
                                        AoV Mean PG = 4 mmHg, LVOT Vmax = 1.1 m/s, LVOT VTI = 0.217
                                        m, LVOT Diam = 2.6 cm. AoV Area Vmax 4.8 cm2. AoV Area VTI
                                        4.6 cm2. DPI = 0. 91.</p>
                                    <p><b>Tricuspid Valve and PA/RV Systolic Pressure:</b> TR Max Velocity
                                        = 2.2 m/s RA pressure = 3 mmHG RVSP/PASP = 23 mmHg. RV S' =
                                        11 cm/s.</p>
                                    <p><b>Pulmonary Valve:</b> PV Max velocity 1.3 m/s, PV Max PG = 7
                                        mmHg.</p>
                                </td>
                            </tr>
                            <tr>
                                <td/>
                                <td/>
                                <td>
                                    <p/>
                                    <p/>
                                </td>
                            </tr>
                            <tr>
                                <td/>
                                <td/>
                                <td>
                                    <p>Mr Wei Zhang, DOB 03/05/1969, File ID 2338172</p>
                                    <p style="font-weight: bold;">06/01/2019 Final</p>
                                </td>
                            </tr>
                        </table>
                    </div>
                </text>
                <identifier>
                    <type>
                        <coding>
                            <system value="http://terminology.hl7.org/CodeSystem/v2-0203"/>
                            <code value="FILL"/>
                            <display value="Filler Identifier"/>
                        </coding>
                    </type>
                    <system
                        value="http://ns.electronichealth.net.au/id/hpio-scoped/report/1.0/8003623233366565"/>
                    <value value="3143079143"/>
                </identifier>
                <basedOn>
                    <reference value="urn:uuid:edbc04cd-3387-435c-bda7-6e1a837b2590"/>
                </basedOn>
                <status value="final"/>
                <category>
                    <coding>
                        <system value="http://terminology.hl7.org/CodeSystem/observation-category"/>
                        <code value="procedure"/>
                    </coding>
                </category>
                <category>
                    <coding>
                        <system value="http://terminology.hl7.org/CodeSystem/v2-0074"/>
                        <code value="CUS"/>
                        <display value="Cardiac Ultrasound"/>
                    </coding>
                </category>
                <code>
                    <coding>
                        <system value="http://snomed.info/sct"/>
                        <code value="40701008"/>
                        <display value="Echocardiography"/>
                    </coding>
                    <text value="Echocardiography"/>
                </code>
                <subject>
                    <reference value="urn:uuid:995138d0-b8bc-4bd9-b49d-d2d025d39ae7"/>
                </subject>
                <effectiveDateTime value="2019-01-06T09:45:00+10:00"/>
                <issued value="2019-01-06T10:12:00+10:00"/>
                <performer>
                    <reference value="urn:uuid:46d552b7-88a9-427b-9d62-8b0727de91f9"/>
                </performer>
                <performer>
                    <reference value="urn:uuid:04ac8978-bc60-4492-aa07-f62568ebe5c6"/>
                </performer>
                <result>
                    <reference value="urn:uuid:4be4f59c-5a98-4d13-aff8-360bb6359243"/>
                </result>
            </DiagnosticReport>
        </resource>
    </entry>
    <!-- Echocardiography Observation referenced in DiagnosticReport.result-->
    <entry>
        <fullUrl value="urn:uuid:4be4f59c-5a98-4d13-aff8-360bb6359243"/>
        <resource>
            <Observation>
                <id value="4be4f59c-5a98-4d13-aff8-360bb6359243"/>
                <identifier>
                    <type>
                        <coding>
                            <system value="http://terminology.hl7.org/CodeSystem/v2-0203"/>
                            <code value="FILL"/>
                            <display value="Filler Identifier"/>
                        </coding>
                    </type>
                    <system value="http://ns.electronichealth.net.au/id/hpio-scoped/report/1.0/8003623233366565"/>
                    <value value="3143079143"/>
                </identifier>
                <status value="final"/>
                <category>
                    <coding>
                        <system value="http://terminology.hl7.org/CodeSystem/observation-category"/>
                        <code value="procedure"/>
                    </coding>
                </category>
                <category>
                    <coding>
                        <system value="http://terminology.hl7.org/CodeSystem/v2-0074"/>
                        <code value="CUS"/>
                        <display value="Cardiac Ultrasound"/>
                    </coding>
                </category>
                <code>
                    <coding>
                        <system value="http://snomed.info/sct"/>
                        <code value="40701008"/>
                        <display value="Echocardiography"/>
                    </coding>
                    <text value="Echocardiography"/>
                </code>
                <subject>
                    <reference value="urn:uuid:995138d0-b8bc-4bd9-b49d-d2d025d39ae7"/>
                </subject>
                <effectiveDateTime value="2019-01-06T09:45:00+10:00"/>
            </Observation>
        </resource>
    </entry>
    <!--ServiceRequest referenced in DiagnosticReport.basedOn-->
    <entry>
        <fullUrl value="urn:uuid:edbc04cd-3387-435c-bda7-6e1a837b2590"/>
        <resource>
            <ServiceRequest xmlns="http://hl7.org/fhir">
                <id value="edbc04cd-3387-435c-bda7-6e1a837b2590"/>
                <status value="completed"/>
                <intent value="order"/>
                <category>
                    <coding>
                        <system value="http://snomed.info/sct"/>
                        <code value="71388002"/>
                    </coding>
                    <coding>
                        <system value="http://snomed.info/sct"/>
                        <code value="276341003"/>
                    </coding>
                    <text value="Cardiovascular investigation"/>
                </category>
                <code>
                    <coding>
                        <system value="http://snomed.info/sct"/>
                        <code value="40701008"/>
                    </coding>
                    <text value="Echocardiography"/>
                </code>
                <subject>
                    <reference value="urn:uuid:995138d0-b8bc-4bd9-b49d-d2d025d39ae7"/>
                </subject>
                <authoredOn value="2019-01-05T00:00:00+10:00"/>
                <requester>
                    <reference value="urn:uuid:cb084861-dd87-48ff-b645-5cb620a00e8e"/>
                    <display value="Dr David George"/>
                </requester>
                <reasonCode>
                    <text value="Pre-chemotherapy"/>
                </reasonCode>
            </ServiceRequest>
        </resource>
    </entry>
    <!--Patient referenced in CDiagnosticReport.subject; ServiceRequest.subject; Observation.subject-->
    <entry>
        <fullUrl value="urn:uuid:995138d0-b8bc-4bd9-b49d-d2d025d39ae7"/>
        <resource>
            <Patient xmlns="http://hl7.org/fhir">
                <id value="995138d0-b8bc-4bd9-b49d-d2d025d39ae7"/>
                <meta>
                    <profile
                        value="http://ns.electronichealth.net.au/ci/fhir/StructureDefinition/patient-ident-1"
                    />
                </meta>
                <extension url="http://hl7.org/fhir/StructureDefinition/patient-birthPlace">
                    <valueAddress>
                        <text value="China"/>
                        <country value="CHN"/>
                    </valueAddress>
                </extension>
                <extension url="http://hl7.org.au/fhir/StructureDefinition/indigenous-status">
                    <valueCoding>
                        <system
                            value="https://healthterminologies.gov.au/fhir/CodeSystem/australian-indigenous-status-1"/>
                        <code value="4"/>
                        <display value="Neither Aboriginal nor Torres Strait Islander origin"/>
                    </valueCoding>
                </extension>
                <extension url="http://hl7.org/fhir/StructureDefinition/patient-interpreterRequired">
                    <valueBoolean value="true"/>
                </extension>
                <extension url="http://hl7.org.au/fhir/StructureDefinition/date-of-arrival">
                    <valueDate value="2017"/>
                </extension>
                <identifier>
                    <extension url="http://hl7.org.au/fhir/StructureDefinition/ihi-status">
                        <valueCoding>
                            <system
                                value="https://healthterminologies.gov.au/fhir/CodeSystem/ihi-status-1"/>
                            <code value="active"/>
                        </valueCoding>
                    </extension>
                    <extension url="http://hl7.org.au/fhir/StructureDefinition/ihi-record-status">
                        <valueCoding>
                            <system
                                value="https://healthterminologies.gov.au/fhir/CodeSystem/ihi-record-status-1"/>
                            <code value="verified"/>
                            <display value="verified"/>
                        </valueCoding>
                    </extension>
                    <type>
                        <coding>
                            <system value="http://terminology.hl7.org/CodeSystem/v2-0203"/>
                            <code value="NI"/>
                        </coding>
                        <text value="IHI"/>
                    </type>
                    <system value="http://ns.electronichealth.net.au/id/hi/ihi/1.0"/>
                    <value value="8003608000228437"/>
                </identifier>
                <identifier>
                    <type>
                        <coding>
                            <system value="http://terminology.hl7.org/CodeSystem/v2-0203"/>
                            <code value="MC"/>
                        </coding>
                        <text value="Medicare Number"/>
                    </type>
                    <system value="http://ns.electronichealth.net.au/id/medicare-number"/>
                    <value value="29533070311"/>
                </identifier>
                <identifier>
                    <type>
                        <coding>
                            <system value="http://terminology.hl7.org/CodeSystem/v2-0203"/>
                            <code value="MR"/>
                            <display value="Medical record number"/>
                        </coding>
                        <text value="Medical Record Number"/>
                    </type>
                    <system value="http://ns.electronichealth.net.au/id/hpio-scoped/medicalrecord/1.0/8003626566699734" />
                    <value value="2338172" />
                    <assigner>
                        <display value="NSW Hospital"/>
                    </assigner>
                </identifier>
                <name>
                    <family value="Zhang"/>
                    <given value="Wei"/>
                    <prefix value="Mr"/>
                </name>
                <gender value="male"/>
                <birthDate value="1969-05-03">
                    <extension
                        url="http://hl7.org.au/fhir/StructureDefinition/date-accuracy-indicator">
                        <valueCoding>
                            <system
                                value="https://healthterminologies.gov.au/fhir/CodeSystem/date-accuracy-indicator-1"/>
                            <code value="AAA"/>
                            <display value="Day, month and year are accurate"/>
                        </valueCoding>
                    </extension>
                </birthDate>
                <address>
                    <use value="home"/>
                    <line value="6 Macquarie Street"/>
                    <city value="Sydney"/>
                    <state value="NSW"/>
                    <postalCode value="2000"/>
                </address>
                <communication>
                    <language>
                        <coding>
                            <system value="urn:ietf:bcp:47"/>
                            <code value="yue"/>
                        </coding>
                        <text value="Cantonese"/>
                    </language>
                    <preferred value="true"/>
                </communication>
            </Patient>
        </resource>
    </entry>
    <!--PractitionerRole (46d552b7-88a9-427b-9d62-8b0727de91f9) referenced in Composition.author; Composition.attester.party; DiagnosticReport.performer;-->
    <entry>
        <fullUrl value="urn:uuid:46d552b7-88a9-427b-9d62-8b0727de91f9"/>
        <resource>
            <PractitionerRole xmlns="http://hl7.org/fhir">
                <id value="46d552b7-88a9-427b-9d62-8b0727de91f9"/>
                <identifier>
                    <type>
                        <coding>
                            <system value="http://terminology.hl7.org/CodeSystem/v2-0203"/>
                            <code value="NPI"/>
                            <display value="National provider identifier"/>
                        </coding>
                        <text value="HPI-I"/>
                    </type>
                    <system value="http://ns.electronichealth.net.au/id/hi/hpii/1.0"/>
                    <value value="8003608833357361"/>
                </identifier>
                <identifier>
                    <type>
                        <coding>
                            <system value="http://terminology.hl7.org/CodeSystem/v2-0203"/>
                            <code value="EI"/>
                            <display value="Employee number"/>
                        </coding>
                        <text value="Employee Number"/>
                    </type>
                    <!--Invalid ABN format that passes profile validation used as the fictitious ABN to avoid introducing ambiguity with real world organisations-->
                    <system
                        value="http://ns.electronichealth.net.au/id/abn-scoped/service-provider-individual/1.0/41824753557"/>
                    <value value="NSW31u32-441"/>
                    <assigner>
                        <display value="NSW Hospital"/>
                    </assigner>
                </identifier>
                <practitioner>
                    <reference value="urn:uuid:d68312c9-b122-4fe5-8e3c-f550bd989f4b"/>
                    <display value="Dr Fredrika Bremer"/>
                </practitioner>
                <organization>
                    <reference value="urn:uuid:676a30d5-9c94-4c4d-8b52-e7cce26defed"/>
                    <display value="NSW Hospital - Cardiology"/>
                </organization>
                <code>
                    <coding>
                        <system value="http://snomed.info/sct"/>
                        <code value="17561000"/>
                        <display value="Cardiologist"/>
                    </coding>
                    <text value="Cardiologist"/>
                </code>
            </PractitionerRole>
        </resource>
    </entry>
    <!--Practitioner referenced in PractitionerRole (46d552b7-88a9-427b-9d62-8b0727de91f9)-->
    <entry>
        <fullUrl value="urn:uuid:d68312c9-b122-4fe5-8e3c-f550bd989f4b"/>
        <resource>
            <Practitioner xmlns="http://hl7.org/fhir">
                <id value="d68312c9-b122-4fe5-8e3c-f550bd989f4b"/>
                <name>
                    <use value="usual"/>
                    <family value="Bremer"/>
                    <given value="Fredrika"/>
                    <prefix value="Dr."/>
                </name>
                <telecom>
                    <system value="phone"/>
                    <value value="(02) 5550 4111"/>
                    <use value="work"/>
                </telecom>
            </Practitioner>
        </resource>
    </entry>
    <!--PractitionerRole (04ac8978-bc60-4492-aa07-f62568ebe5c6) referenced in DiagnosticReport.performer-->
    <entry>
        <fullUrl value="urn:uuid:04ac8978-bc60-4492-aa07-f62568ebe5c6"/>
        <resource>
            <PractitionerRole xmlns="http://hl7.org/fhir">
                <id value="04ac8978-bc60-4492-aa07-f62568ebe5c6"/>
                <identifier>
                    <type>
                        <coding>
                            <system value="http://terminology.hl7.org/CodeSystem/v2-0203"/>
                            <code value="NPI"/>
                            <display value="National provider identifier"/>
                        </coding>
                        <text value="HPI-I"/>
                    </type>
                    <system value="http://ns.electronichealth.net.au/id/hi/hpii/1.0"/>
                    <value value="8003608166895854"/>
                </identifier>
                <identifier>
                    <type>
                        <coding>
                            <system value="http://terminology.hl7.org/CodeSystem/v2-0203"/>
                            <code value="EI"/>
                            <display value="Employee number"/>
                        </coding>
                        <text value="Employee Number"/>
                    </type>
                    <!--Invalid ABN format that passes profile validation used as the fictitious ABN to avoid introducing ambiguity with real world organisations-->
                    <system
                        value="http://ns.electronichealth.net.au/id/abn-scoped/service-provider-individual/1.0/41824753557"/>
                    <value value="NSW31u32-401"/>
                    <assigner>
                        <display value="NSW Hospital"/>
                    </assigner>
                </identifier>
                <practitioner>
                    <reference value="urn:uuid:e6de10ad-8dba-4250-8399-311da99e8c30"/>
                    <display value="Ms Linda Howard"/>
                </practitioner>
                <organization>
                    <reference value="urn:uuid:676a30d5-9c94-4c4d-8b52-e7cce26defed"/>
                    <display value="NSW Hospital - Cardiology"/>
                </organization>
                <code>
                    <coding>
                        <system value="http://snomed.info/sct"/>
                        <code value="1012861000168100"/>
                        <display value="Sonographer"/>
                    </coding>
                    <text value="Sonographer"/>
                </code>
            </PractitionerRole>
        </resource>
    </entry>
    <!--Practitioner referenced in PractitionerRole (04ac8978-bc60-4492-aa07-f62568ebe5c6)-->
    <entry>
        <fullUrl value="urn:uuid:e6de10ad-8dba-4250-8399-311da99e8c30"/>
        <resource>
            <Practitioner xmlns="http://hl7.org/fhir">
                <id value="e6de10ad-8dba-4250-8399-311da99e8c30"/>
                <name>
                    <use value="usual"/>
                    <family value="Bremer"/>
                    <given value="Fredrika"/>
                    <prefix value="Dr."/>
                </name>
                <telecom>
                    <system value="phone"/>
                    <value value="(02) 5550 4111"/>
                    <use value="work"/>
                </telecom>
            </Practitioner>
        </resource>
    </entry>
    <!--Organization referenced in Composition.custodian; PractitionerRole (04ac8978-bc60-4492-aa07-f62568ebe5c6); PractitionerRole (46d552b7-88a9-427b-9d62-8b0727de91f9)-->
    <entry>
        <fullUrl value="urn:uuid:676a30d5-9c94-4c4d-8b52-e7cce26defed"/>
        <resource>
            <Organization xmlns="http://hl7.org/fhir">
                <id value="676a30d5-9c94-4c4d-8b52-e7cce26defed"/>
                <meta>
                    <lastUpdated value="2020-05-12T00:00:00.000+10:00"/>
                </meta>
                <!--Invalid ABN format that passes profile validation used as the fictitious ABN to avoid introducing ambiguity with real world organisations-->
                <identifier>
                    <type>
                        <text value="ABN"/>
                    </type>
                    <system value="http://hl7.org.au/id/abn"/>
                    <value value="41824753557"/>
                </identifier>
                <identifier>
                    <type>
                        <coding>
                            <system value="http://terminology.hl7.org.au/CodeSystem/v2-0203"/>
                            <code value="NOI"/>
                        </coding>
                        <text value="HPI-O"/>
                    </type>
                    <system value="http://ns.electronichealth.net.au/id/hi/hpio/1.0"/>
                    <value value="8003626566699734"/>
                </identifier>
                <type>
                    <coding>
                        <system value="http://snomed.info/sct"/>
                        <code value="22232009"/>
                    </coding>
                    <coding>
                        <system value="http://terminology.hl7.org/CodeSystem/v3-RoleCode"/>
                        <code value="HOSP"/>
                    </coding>
                    <text value="Hospital"/>
                </type>
                <name value="NSW Hospital"/>
                <telecom>
                    <system value="url"/>
                    <value value="https://www.health.nsw.example.org/nsw-hospital"/>
                </telecom>
                <telecom>
                    <system value="phone"/>
                    <value value="(02) 5550 4444"/>
                </telecom>
                <address>
                    <type value="physical"/>
                    <text value="2325 Rocklands Rd, North Sydney NSW 2060"/>
                    <line value="2325 Rocklands Rd"/>
                    <city value="South Brisbane"/>
                    <state value="QLD"/>
                    <postalCode value="4101"/>
                    <country value="AU"/>
                </address>
            </Organization>
        </resource>
    </entry>
    <!--PractitionerRole referenced in ServiceRequest.requester-->
    <entry>
        <fullUrl value="urn:uuid:cb084861-dd87-48ff-b645-5cb620a00e8e"/>
        <resource>
            <PractitionerRole xmlns="http://hl7.org/fhir">
                <id value="cb084861-dd87-48ff-b645-5cb620a00e8e"/>
                <identifier>
                    <type>
                        <coding>
                            <system value="http://terminology.hl7.org/CodeSystem/v2-0203"/>
                            <code value="EI"/>
                            <display value="Employee number"/>
                        </coding>
                        <text value="Employee Number"/>
                    </type>
                    <system value="http://www.health.nsw.example.org/nsw-hospital/fred-hope"/>
                    <value value="123113"/>
                    <assigner>
                        <display value="Fred Hope Cancer Centre"/>
                    </assigner>
                </identifier>
                <identifier>
                    <type>
                        <coding>
                            <system value="http://terminology.hl7.org/CodeSystem/v2-0203"/>
                            <code value="NPI"/>
                            <display value="National provider identifier"/>
                        </coding>
                        <text value="HPI-I"/>
                    </type>
                    <system value="http://ns.electronichealth.net.au/id/hi/hpii/1.0"/>
                    <value value="8003608833564727"/>
                </identifier>
                <practitioner>
                    <display value="Dr David George"/>
                </practitioner>
                <organization>
                    <display value="Fred Hope Cancer Centre"/>
                </organization>
                <code>
                    <coding>
                        <system value="http://snomed.info/sct"/>
                        <code value="309295000"/>
                    </coding>
                    <text value="Oncologist"/>
                </code>
            </PractitionerRole>
        </resource>
    </entry>
</Bundle>
