<?xml version="1.0" encoding="UTF-8"?>
<Bundle xmlns="http://hl7.org/fhir">
    <id value="0e2357c2-1317-40db-857a-b7162ec3dda8"/>
    <meta>
        <lastUpdated value="2020-06-21T11:46:00+10:00"/>
    </meta>
    <type value="collection"/>
    <!--DiagnoticReport-->
    <entry>
        <fullUrl value="urn:uuid:b980048e-890c-4a4a-afbb-87742509dfb5"/>
        <resource>
            <DiagnosticReport>
                <id value="b980048e-890c-4a4a-afbb-87742509dfb5"/>
                <meta>
                    <profile
                        value="http://ns.electronichealth.net.au/ci/fhir/StructureDefinition/diagnosticreport-otherdiag-atomic-1"
                    />
                </meta>
                <language value="en-AU"/>
                <!--WORKAROUND: The contents of Composition.text are a workaround to enable the tooling used to generate this implementation guide
                to generate a human friendly rendering instead of forcing the reader to refer to XML or JSON format to view the full example narrative.
                The contents below is not consitent with good or recommended practice. -->
                <text>
                    <status value="generated"/>
                    <div xmlns="http://www.w3.org/1999/xhtml" lang="en-AU">
                        <table>
                            <tr>
                                <th>Echocardiography Report</th>
                            </tr>
                            <tr>
                                <td>06 Jan 2019 10:12</td>
                            </tr>

                        </table>
                        <table>
                            <tbody>
                                <tr>
                                    <td>START OF DOCUMENT</td>
                                </tr>
                            </tbody>
                        </table>
                        <table style="width:100%">
                            <tbody>
                                <tr>
                                    <td>
                                        <table>
                                            <thead>
                                                <tr>
                                                  <th>Requester</th>
                                                </tr>
                                            </thead>
                                            <tbody>
                                                <tr>
                                                  <td>Dr David George (Oncologist) (HPI-I:
                                                  8003608833564727)</td>
                                                </tr>
                                                <tr>
                                                  <td>Fred Hope Cancer Centre</td>
                                                </tr>
                                            </tbody>
                                        </table>
                                        <table>
                                            <thead>
                                                <tr>
                                                  <th>Request Details</th>
                                                </tr>
                                            </thead>
                                            <tbody>
                                                <tr>
                                                  <td>Request Date/Time:</td>
                                                  <td>05 Jan 2019 0:00</td>
                                                </tr>
                                                <tr>
                                                  <td>Requested Test:</td>
                                                  <td>Echocardiography</td>
                                                </tr>
                                            </tbody>
                                        </table>
                                    </td>
                                    <td>
                                        <table>
                                            <thead>
                                                <tr>
                                                  <th>Author</th>
                                                </tr>
                                            </thead>
                                            <tbody>
                                                <tr>
                                                  <td>Dr Fredrika Bremer (Cardiologist)</td>
                                                </tr>
                                                <tr>
                                                  <td>(02) 5550 4111</td>
                                                </tr>
                                                <tr>
                                                  <td/>
                                                </tr>
                                                <tr>
                                                  <td>NSW Hospital - Cardiology (HPI-O:
                                                  8003626566699734) (ABN: 41824753557)</td>
                                                </tr>
                                                <tr>
                                                  <td>2325 Rocklands Rd, North Sydney, NSW,
                                                  2060</td>
                                                </tr>
                                                <tr>
                                                  <td>(02) 5550 4444
                                                  https://www.health.nsw.example.org/nsw-hospital</td>
                                                </tr>
                                            </tbody>
                                        </table>
                                    </td>
                                </tr>
                                <tr>
                                    <td>
                                        <table>
                                            <thead>
                                                <tr>
                                                  <th>Report Details</th>
                                                </tr>
                                            </thead>
                                            <tbody>
                                                <tr>
                                                  <td>Report Date/Time:</td>
                                                  <td>06 Jan 2019 10:12</td>
                                                </tr>
                                                <tr>
                                                  <td>Report Name:</td>
                                                  <td>Echocardiography - pre chemo</td>
                                                </tr>
                                                <tr>
                                                  <td>Report ID:</td>
                                                  <td>3143079143</td>
                                                </tr>
                                                <tr>
                                                  <td>Report Status:</td>
                                                  <td>Final</td>
                                                </tr>
                                                <tr>
                                                  <td>Diagnostice Service(s):</td>
                                                  <td>Cardiac Ultrasound</td>
                                                </tr>
                                            </tbody>
                                        </table>
                                    </td>
                                </tr>
                            </tbody>
                        </table>
                        <h1>Diagnostic Test / Investigation Results</h1>
                        <table>
                            <thead>
                                <tr>
                                    <th>
                                        <tr>
                                            <th>Test Name</th>
                                            <th>Diagnostic Service</th>
                                            <th>Test Date/Time</th>
                                            <th>Status</th>
                                        </tr>
                                    </th>
                                </tr>
                            </thead>
                            <tbody>
                                <tbody>
                                    <tr>
                                        <td>Echocardiography</td>
                                        <td>Cardiac Ultrasound</td>
                                        <td>06 Jan 2019 09:45</td>
                                        <td>Final</td>
                                    </tr>
                                </tbody>
                            </tbody>
                        </table>
                        <p>
                            <a
                                href="https://github.com/AuDigitalHealth/ci-fhir-r4/tree/master/examples/Echocardiography-pre-chemo.pdf"
                                >Link to PDF document</a>
                        </p>
                        <table>
                            <tbody>
                                <tr>
                                    <td>ADMINISTRATIVE DETAILS</td>
                                </tr>
                            </tbody>
                        </table>
                        <table>
                            <tbody>
                                <tr>
                                    <td>
                                        <table>
                                            <thead>
                                                <tr>
                                                  <th>Patient</th>
                                                </tr>
                                            </thead>
                                            <tbody>
                                                <tr>
                                                  <td>Name</td>
                                                  <td>Mr Wei ZHANG</td>
                                                </tr>
                                                <tr>
                                                  <td>Gender</td>
                                                  <td>Male</td>
                                                </tr>
                                                <tr>
                                                  <td>Indigenous Status</td>
                                                  <td>Neither Aboriginal nor Torres Strait Islander
                                                  origin</td>
                                                </tr>
                                            </tbody>
                                        </table>
                                    </td>
                                    <td>
                                        <table>
                                            <thead>
                                                <tr>
                                                  <th>Author</th>
                                                </tr>
                                            </thead>
                                            <tbody>
                                                <tr>
                                                  <td>Name</td>
                                                  <td>Dr Fredrika Bremer (Cardiologist) (HPI-I:
                                                  8003608833357361)</td>
                                                </tr>
                                                <tr>
                                                  <td>Phone</td>
                                                  <td>(02) 5550 4111</td>
                                                </tr>
                                                <tr>
                                                  <td>Organisation</td>
                                                  <td>NSW Hospital - Cardiology (HPI-O:
                                                  8003626566699734) (ABN: 41824753557)</td>
                                                </tr>
                                                <tr>
                                                  <td>Work Place</td>
                                                  <td>2325 Rocklands Rd, North Sydney NSW 2060</td>
                                                </tr>
                                            </tbody>
                                        </table>
                                        <table>
                                            <thead>
                                                <tr>
                                                  <th>Other Details</th>
                                                </tr>
                                            </thead>
                                            <tbody>
                                                <tr>
                                                  <td>Date/Time Authored</td>
                                                  <td>06 Jan 2019 10:12</td>
                                                </tr>
                                                <tr>
                                                  <td>Date/Time Attested</td>
                                                  <td>06 Jan 2019 10:12</td>
                                                </tr>
                                                <tr>
                                                  <td>Status</td>
                                                  <td>Final</td>
                                                </tr>
                                            </tbody>
                                        </table>
                                    </td>
                                </tr>
                            </tbody>
                        </table>

                    </div>

                </text>
                <identifier>
                    <type>
                        <coding>
                            <system value="http://terminology.hl7.org/CodeSystem/v2-0203"/>
                            <code value="FILL"/>
                            <display value="Filler Identifier"/>
                        </coding>
                    </type>
                    <system
                        value="http://ns.electronichealth.net.au/id/hpio-scoped/report/1.0/8003623233366565"/>
                    <value value="3143079143"/>
                </identifier>
                <basedOn>
                    <reference value="urn:uuid:edbc04cd-3387-435c-bda7-6e1a837b2590"/>
                </basedOn>
                <status value="final"/>
                <category>
                    <coding>
                        <system value="http://terminology.hl7.org/CodeSystem/observation-category"/>
                        <code value="procedure"/>
                    </coding>
                </category>
                <category>
                    <coding>
                        <system value="http://terminology.hl7.org/CodeSystem/v2-0074"/>
                        <code value="CUS"/>
                        <display value="Cardiac Ultrasound"/>
                    </coding>
                </category>
                <code>
                    <coding>
                        <system value="http://snomed.info/sct"/>
                        <code value="40701008"/>
                        <display value="Echocardiography"/>
                    </coding>
                    <text value="Echocardiography"/>
                </code>
                <subject>
                    <reference value="urn:uuid:995138d0-b8bc-4bd9-b49d-d2d025d39ae7"/>
                </subject>
                <effectiveDateTime value="2019-01-06T09:45:00+10:00"/>
                <issued value="2019-01-06T10:12:00+10:00"/>
                <performer>
                    <reference value="urn:uuid:46d552b7-88a9-427b-9d62-8b0727de91f9"/>
                </performer>
                <performer>
                    <reference value="urn:uuid:04ac8978-bc60-4492-aa07-f62568ebe5c6"/>
                </performer>
                <result>
                    <reference value="urn:uuid:4be4f59c-5a98-4d13-aff8-360bb6359243"/>
                </result>
            </DiagnosticReport>
        </resource>
    </entry>
    <!--Observation referenced in DiagnosticReport.result-->
    <entry>
        <fullUrl value="urn:uuid:4be4f59c-5a98-4d13-aff8-360bb6359243"/>
        <resource>
            <Observation>
                <id value="4be4f59c-5a98-4d13-aff8-360bb6359243"/>
                <status value="final"/>
                <category>
                    <coding>
                        <system value="http://terminology.hl7.org/CodeSystem/observation-category"/>
                        <code value="procedure"/>
                    </coding>
                </category>
                <category>
                    <coding>
                        <system value="http://terminology.hl7.org/CodeSystem/v2-0074"/>
                        <code value="CUS"/>
                        <display value="Cardiac Ultrasound"/>
                    </coding>
                </category>
                <code>
                    <coding>
                        <system value="http://snomed.info/sct"/>
                        <code value="40701008"/>
                        <display value="Echocardiography"/>
                    </coding>
                    <text value="Echocardiography"/>
                </code>
                <subject>
                    <reference value="urn:uuid:995138d0-b8bc-4bd9-b49d-d2d025d39ae7"/>
                </subject>
                <effectiveDateTime value="2019-01-06T09:45:00+10:00"/>
            </Observation>
        </resource>
    </entry>
    <!--ServiceRequest referenced in DiagnosticReport.basedOn-->
    <entry>
        <fullUrl value="urn:uuid:edbc04cd-3387-435c-bda7-6e1a837b2590"/>
        <resource>
            <ServiceRequest xmlns="http://hl7.org/fhir">
                <id value="edbc04cd-3387-435c-bda7-6e1a837b2590"/>
                <status value="completed"/>
                <intent value="order"/>
                <category>
                    <coding>
                        <system value="http://snomed.info/sct"/>
                        <code value="71388002"/>
                    </coding>
                    <coding>
                        <system value="http://snomed.info/sct"/>
                        <code value="276341003"/>
                    </coding>
                    <text value="Cardiovascular investigation"/>
                </category>
                <code>
                    <coding>
                        <system value="http://snomed.info/sct"/>
                        <code value="40701008"/>
                    </coding>
                    <text value="Echocardiography"/>
                </code>
                <subject>
                    <reference value="urn:uuid:995138d0-b8bc-4bd9-b49d-d2d025d39ae7"/>
                </subject>
                <authoredOn value="2019-01-05T00:00:00+10:00"/>
                <requester>
                    <reference value="urn:uuid:cb084861-dd87-48ff-b645-5cb620a00e8e"/>
                    <display value="Dr David George"/>
                </requester>
                <reasonCode>
                    <text value="Pre-chemotherapy"/>
                </reasonCode>
            </ServiceRequest>
        </resource>
    </entry>
    <!--Patient referenced in Composition.subject; DiagnosticReport.subject; ServiceRequest.subject; Observation.subject-->
    <entry>
        <fullUrl value="urn:uuid:995138d0-b8bc-4bd9-b49d-d2d025d39ae7"/>
        <resource>
            <Patient xmlns="http://hl7.org/fhir">
                <id value="995138d0-b8bc-4bd9-b49d-d2d025d39ae7"/>
                <meta>
                    <profile
                        value="http://ns.electronichealth.net.au/ci/fhir/StructureDefinition/patient-mhr-1"
                    />
                </meta>
                <extension url="http://hl7.org/fhir/StructureDefinition/patient-birthPlace">
                    <valueAddress>
                        <text value="China"/>
                        <country value="CHN"/>
                    </valueAddress>
                </extension>
                <extension url="http://hl7.org.au/fhir/StructureDefinition/indigenous-status">
                    <valueCoding>
                        <system
                            value="https://healthterminologies.gov.au/fhir/CodeSystem/australian-indigenous-status-1"/>
                        <code value="4"/>
                        <display value="Neither Aboriginal nor Torres Strait Islander origin"/>
                    </valueCoding>
                </extension>
                <extension url="http://hl7.org/fhir/StructureDefinition/patient-interpreterRequired">
                    <valueBoolean value="true"/>
                </extension>
                <extension url="http://hl7.org.au/fhir/StructureDefinition/date-of-arrival">
                    <valueDate value="2017"/>
                </extension>
                <identifier>
                    <extension url="http://hl7.org.au/fhir/StructureDefinition/ihi-status">
                        <valueCoding>
                            <system
                                value="https://healthterminologies.gov.au/fhir/CodeSystem/ihi-status-1"/>
                            <code value="active"/>
                        </valueCoding>
                    </extension>
                    <extension url="http://hl7.org.au/fhir/StructureDefinition/ihi-record-status">
                        <valueCoding>
                            <system
                                value="https://healthterminologies.gov.au/fhir/CodeSystem/ihi-record-status-1"/>
                            <code value="verified"/>
                            <display value="verified"/>
                        </valueCoding>
                    </extension>
                    <type>
                        <coding>
                            <system value="http://terminology.hl7.org/CodeSystem/v2-0203"/>
                            <code value="NI"/>
                        </coding>
                        <text value="IHI"/>
                    </type>
                    <system value="http://ns.electronichealth.net.au/id/hi/ihi/1.0"/>
                    <value value="8003608000228437"/>
                </identifier>
                <identifier>
                    <type>
                        <coding>
                            <system value="http://terminology.hl7.org/CodeSystem/v2-0203"/>
                            <code value="MC"/>
                        </coding>
                        <text value="Medicare Number"/>
                    </type>
                    <system value="http://ns.electronichealth.net.au/id/medicare-number"/>
                    <value value="29533070311"/>
                </identifier>
                <name>
                    <family value="Zhang"/>
                    <given value="Wei"/>
                    <prefix value="Mr"/>
                </name>
                <gender value="male"/>
                <birthDate value="1969-05-03">
                    <extension
                        url="http://hl7.org.au/fhir/StructureDefinition/date-accuracy-indicator">
                        <valueCoding>
                            <system
                                value="https://healthterminologies.gov.au/fhir/CodeSystem/date-accuracy-indicator-1"/>
                            <code value="AAA"/>
                            <display value="Day, month and year are accurate"/>
                        </valueCoding>
                    </extension>
                </birthDate>
                <communication>
                    <language>
                        <coding>
                            <system value="urn:ietf:bcp:47"/>
                            <code value="yue"/>
                        </coding>
                        <text value="Cantonese"/>
                    </language>
                    <preferred value="true"/>
                </communication>
            </Patient>
        </resource>
    </entry>
    <!--PractitionerRole (46d552b7-88a9-427b-9d62-8b0727de91f9) referenced in Composition.author; Composition.attester.party; DiagnosticReport.performer;-->
    <entry>
        <fullUrl value="urn:uuid:46d552b7-88a9-427b-9d62-8b0727de91f9"/>
        <resource>
            <PractitionerRole xmlns="http://hl7.org/fhir">
                <id value="46d552b7-88a9-427b-9d62-8b0727de91f9"/>
                <identifier>
                    <type>
                        <coding>
                            <system value="http://terminology.hl7.org/CodeSystem/v2-0203"/>
                            <code value="NPI"/>
                            <display value="National provider identifier"/>
                        </coding>
                        <text value="HPI-I"/>
                    </type>
                    <system value="http://ns.electronichealth.net.au/id/hi/hpii/1.0"/>
                    <value value="8003608833357361"/>
                </identifier>
                <identifier>
                    <type>
                        <coding>
                            <system value="http://terminology.hl7.org/CodeSystem/v2-0203"/>
                            <code value="EI"/>
                            <display value="Employee number"/>
                        </coding>
                        <text value="Employee Number"/>
                    </type>
                    <!--Invalid ABN format that passes profile validation used as the fictitious ABN to avoid introducing ambiguity with real world organisations-->
                    <system
                        value="http://ns.electronichealth.net.au/id/abn-scoped/service-provider-individual/1.0/41824753557"/>
                    <value value="NSW31u32-441"/>
                    <assigner>
                        <display value="NSW Hospital"/>
                    </assigner>
                </identifier>
                <practitioner>
                    <reference value="urn:uuid:d68312c9-b122-4fe5-8e3c-f550bd989f4b"/>
                    <display value="Dr Fredrika Bremer"/>
                </practitioner>
                <organization>
                    <reference value="urn:uuid:676a30d5-9c94-4c4d-8b52-e7cce26defed"/>
                    <display value="NSW Hospital - Cardiology"/>
                </organization>
                <code>
                    <coding>
                        <system value="http://snomed.info/sct"/>
                        <code value="17561000"/>
                        <display value="Cardiologist"/>
                    </coding>
                    <text value="Cardiologist"/>
                </code>
            </PractitionerRole>
        </resource>
    </entry>
    <!--Practitioner referenced in PractitionerRole (46d552b7-88a9-427b-9d62-8b0727de91f9)-->
    <entry>
        <fullUrl value="urn:uuid:d68312c9-b122-4fe5-8e3c-f550bd989f4b"/>
        <resource>
            <Practitioner xmlns="http://hl7.org/fhir">
                <id value="d68312c9-b122-4fe5-8e3c-f550bd989f4b"/>
                <name>
                    <use value="usual"/>
                    <family value="Bremer"/>
                    <given value="Fredrika"/>
                    <prefix value="Dr."/>
                </name>
                <telecom>
                    <system value="phone"/>
                    <value value="(02) 5550 4111"/>
                    <use value="work"/>
                </telecom>
            </Practitioner>
        </resource>
    </entry>
    <!--PractitionerRole (04ac8978-bc60-4492-aa07-f62568ebe5c6) referenced in DiagnosticReport.performer-->
    <entry>
        <fullUrl value="urn:uuid:04ac8978-bc60-4492-aa07-f62568ebe5c6"/>
        <resource>
            <PractitionerRole xmlns="http://hl7.org/fhir">
                <id value="04ac8978-bc60-4492-aa07-f62568ebe5c6"/>
                <identifier>
                    <type>
                        <coding>
                            <system value="http://terminology.hl7.org/CodeSystem/v2-0203"/>
                            <code value="NPI"/>
                            <display value="National provider identifier"/>
                        </coding>
                        <text value="HPI-I"/>
                    </type>
                    <system value="http://ns.electronichealth.net.au/id/hi/hpii/1.0"/>
                    <value value="8003608166895854"/>
                </identifier>
                <identifier>
                    <type>
                        <coding>
                            <system value="http://terminology.hl7.org/CodeSystem/v2-0203"/>
                            <code value="EI"/>
                            <display value="Employee number"/>
                        </coding>
                        <text value="Employee Number"/>
                    </type>
                    <!--Invalid ABN format that passes profile validation used as the fictitious ABN to avoid introducing ambiguity with real world organisations-->
                    <system
                        value="http://ns.electronichealth.net.au/id/abn-scoped/service-provider-individual/1.0/41824753557"/>
                    <value value="NSW31u32-401"/>
                    <assigner>
                        <display value="NSW Hospital"/>
                    </assigner>
                </identifier>
                <practitioner>
                    <reference value="urn:uuid:e6de10ad-8dba-4250-8399-311da99e8c30"/>
                    <display value="Ms Linda Howard"/>
                </practitioner>
                <organization>
                    <reference value="urn:uuid:676a30d5-9c94-4c4d-8b52-e7cce26defed"/>
                    <display value="NSW Hospital - Cardiology"/>
                </organization>
                <code>
                    <coding>
                        <system value="http://snomed.info/sct"/>
                        <code value="1012861000168100"/>
                        <display value="Sonographer"/>
                    </coding>
                    <text value="Sonographer"/>
                </code>
            </PractitionerRole>
        </resource>
    </entry>
    <!--Practitioner referenced in PractitionerRole (04ac8978-bc60-4492-aa07-f62568ebe5c6)-->
    <entry>
        <fullUrl value="urn:uuid:e6de10ad-8dba-4250-8399-311da99e8c30"/>
        <resource>
            <Practitioner xmlns="http://hl7.org/fhir">
                <id value="e6de10ad-8dba-4250-8399-311da99e8c30"/>
                <name>
                    <use value="usual"/>
                    <family value="Bremer"/>
                    <given value="Fredrika"/>
                    <prefix value="Dr."/>
                </name>
                <telecom>
                    <system value="phone"/>
                    <value value="(02) 5550 4111"/>
                    <use value="work"/>
                </telecom>
            </Practitioner>
        </resource>
    </entry>
    <!--Organization referenced in Composition.custodian; PractitionerRole (04ac8978-bc60-4492-aa07-f62568ebe5c6); PractitionerRole (46d552b7-88a9-427b-9d62-8b0727de91f9)-->
    <entry>
        <fullUrl value="urn:uuid:676a30d5-9c94-4c4d-8b52-e7cce26defed"/>
        <resource>
            <Organization xmlns="http://hl7.org/fhir">
                <id value="676a30d5-9c94-4c4d-8b52-e7cce26defed"/>
                <meta>
                    <lastUpdated value="2020-05-12T00:00:00.000+10:00"/>
                </meta>
                <!--Invalid ABN format that passes profile validation used as the fictitious ABN to avoid introducing ambiguity with real world organisations-->
                <identifier>
                    <type>
                        <text value="ABN"/>
                    </type>
                    <system value="http://hl7.org.au/id/abn"/>
                    <value value="41824753557"/>
                </identifier>
                <identifier>
                    <type>
                        <coding>
                            <system value="http://terminology.hl7.org.au/CodeSystem/v2-0203"/>
                            <code value="NOI"/>
                        </coding>
                        <text value="HPI-O"/>
                    </type>
                    <system value="http://ns.electronichealth.net.au/id/hi/hpio/1.0"/>
                    <value value="8003626566699734"/>
                </identifier>
                <type>
                    <coding>
                        <system value="http://snomed.info/sct"/>
                        <code value="22232009"/>
                    </coding>
                    <coding>
                        <system value="http://terminology.hl7.org/CodeSystem/v3-RoleCode"/>
                        <code value="HOSP"/>
                    </coding>
                    <text value="Hospital"/>
                </type>
                <name value="NSW Hospital"/>
                <telecom>
                    <system value="url"/>
                    <value value="https://www.health.nsw.example.org/nsw-hospital"/>
                </telecom>
                <telecom>
                    <system value="phone"/>
                    <value value="(02) 5550 4444"/>
                </telecom>
                <address>
                    <type value="physical"/>
                    <text value="2325 Rocklands Rd, North Sydney NSW 2060"/>
                    <line value="2325 Rocklands Rd"/>
                    <city value="South Brisbane"/>
                    <state value="QLD"/>
                    <postalCode value="4101"/>
                    <country value="AU"/>
                </address>
            </Organization>
        </resource>
    </entry>
    <!--PractitionerRole referenced in ServiceRequest.requester-->
    <entry>
        <fullUrl value="urn:uuid:cb084861-dd87-48ff-b645-5cb620a00e8e"/>
        <resource>
            <PractitionerRole xmlns="http://hl7.org/fhir">
                <id value="cb084861-dd87-48ff-b645-5cb620a00e8e"/>
                <identifier>
                    <type>
                        <coding>
                            <system value="http://terminology.hl7.org/CodeSystem/v2-0203"/>
                            <code value="EI"/>
                            <display value="Employee number"/>
                        </coding>
                        <text value="Employee Number"/>
                    </type>
                    <system value="http://www.health.nsw.example.org/nsw-hospital/fred-hope"/>
                    <value value="123113"/>
                    <assigner>
                        <display value="Fred Hope Cancer Centre"/>
                    </assigner>
                </identifier>
                <identifier>
                    <type>
                        <coding>
                            <system value="http://terminology.hl7.org/CodeSystem/v2-0203"/>
                            <code value="NPI"/>
                            <display value="National provider identifier"/>
                        </coding>
                        <text value="HPI-I"/>
                    </type>
                    <system value="http://ns.electronichealth.net.au/id/hi/hpii/1.0"/>
                    <value value="8003608833564727"/>
                </identifier>
                <practitioner>
                    <display value="Dr David George"/>
                </practitioner>
                <organization>
                    <display value="Fred Hope Cancer Centre"/>
                </organization>
                <code>
                    <coding>
                        <system value="http://snomed.info/sct"/>
                        <code value="309295000"/>
                    </coding>
                    <text value="Oncologist"/>
                </code>
            </PractitionerRole>
        </resource>
    </entry>
</Bundle>
