<?xml version="1.0" encoding="UTF-8"?>
<Bundle xmlns="http://hl7.org/fhir">
    <id value="shs-01"/>
    <meta>
        <lastUpdated value="2018-09-21T09:01:00+10:00"/>
        <profile value="http://ns.electronichealth.net.au/ci/fhir/StructureDefinition/dh-bundle-document-1"/>
    </meta>
    <identifier>
        <system value="urn:ietf:rfc:3986"/>
        <value value="urn:uuid:e63acc0c-262b-4a51-bbec-477adf351f83"/>
    </identifier>
    <type value="document"/>
    <!--    Composition    -->
    <entry>
        <fullUrl value="urn:uuid:ff0gh111a-cc0f-4c3d-a4cd-a35ceafff999"/>
        <resource>
            <Composition xmlns="http://hl7.org/fhir">
                <id value="ff0gh111a-cc0f-4c3d-a4cd-a35ceafff999"/>
                <meta>
                    <profile value="http://ns.electronichealth.net.au/ci/fhir/StructureDefinition/dh-composition-shs-1"/>
                </meta>
                <language value="en-AU"/>
                <identifier>
                    <system value="urn:ietf:rfc:3986"/>
                    <value value="urn:uuid:9cb8267f-fcfd-4341-bc89-e53e4ce9646c"/>
                </identifier>
                <status value="final"/>
                <type>
                    <coding>
                        <system value="http://loinc.org"/>
                        <code value="60591-5" />
                    </coding>
                    <text value="Shared Health Summary"/>
                </type>
                <category>
                    <coding>
                        <system value="http://loinc.org"/>
                        <code value="60591-5" />
                    </coding>
                </category>
                <subject>
                    <reference value="urn:uuid:cc246543-a0da-4ead-9ed6-5e064fea9ff7"/>
                </subject>
                <date value="2018-09-21T09:00:00+10:00"/>
                <author>
                    <reference value="urn:uuid:45cad6ac-e9a3-418a-8480-4e64132849f2"/>
                </author>
                <title value="Shared Health Summary"/>
                <attester>
                    <mode value="legal"/>
                    <time value="2018-09-21T09:00:00+10:00"/>
                    <party>
                        <reference value="urn:uuid:45cad6ac-e9a3-418a-8480-4e64132849f2"/>
                    </party>
                </attester>
                <custodian>
                    <reference value="urn:uuid:021fff67-c5ec-438f-9520-ce9bafee1306"/>
                </custodian>
                <section>
                    <title value="Current Medications"/>
                    <code>
                        <coding>
                            <system value="https://healthterminologies.gov.au/fhir/CodeSystem/nctis-data-components-1"/>
                            <code value="101.32009"/>
                            <display value="Current Medicine"/>
                        </coding>
                    </code>
                    <text>
                        <status value="additional"/>
                        <div xmlns="http://www.w3.org/1999/xhtml" lang="en-AU">
                            <table border="5">
                                <caption>Medications</caption>
                                <thead>
                                    <tr>
                                        <th>Medication</th>
                                        <th>Dose</th>
                                    </tr>
                                </thead>
                                <tbody>
                                    <tr>
                                        <td>Candesartan 32mg</td>
                                        <td>1 tablet daily</td>
                                    </tr>
                                </tbody>
                            </table>
                        </div>
                    </text>
                    <entry>
                        <reference value="urn:uuid:2fe9873a-0eea-415a-89ae-0b82ff2b3d0b"/>
                    </entry>
                </section>
                <section>
                    <title value="Allergies and Adverse Reactions"/>
                    <code>
                        <coding>
                            <system value="http://loinc.org"/>
                            <code value="48765-2"/>
                            <display value="Allergies and adverse reactions Document"/>
                        </coding>
                    </code>
                    <text>
                        <status value="additional"/>
                        <div xmlns="http://www.w3.org/1999/xhtml" lang="en-AU">
                            <p>No available information.</p>
                        </div>
                    </text>
                    <emptyReason>
                        <coding>
                            <system value="http://terminology.hl7.org/CodeSystem/list-empty-reason"/>
                            <code value="unavailable"/>
                            <display value="Unavailable"/>
                        </coding>
                    </emptyReason>
                </section>
                <section>
                    <title value="Medical History"/>
                    <code>
                        <coding>
                            <system value="https://healthterminologies.gov.au/fhir/CodeSystem/nctis-data-components-1"/>
                            <code value="101.16117"/>
                            <display value="Medical History"/>
                        </coding>
                    </code>
                    <text>
                        <status value="additional"/>
                        <div xmlns="http://www.w3.org/1999/xhtml" lang="en-AU">
                            <p>No relevant medical history.</p>
                        </div>
                    </text>
                    <entry>
                        <reference value="urn:uuid:552bcf1e-5e3e-45b7-9539-0a99ba860146"/>
                    </entry>
                </section>
                <section>
                    <title value="Immunisations"/>
                    <code>
                        <coding>
                            <system value="http://loinc.org"/>
                            <code value="11369-6"/>
                            <display value="History of Immunization Narrative"/>
                        </coding>
                    </code>
                    <text>
                        <status value="additional"/>
                        <div xmlns="http://www.w3.org/1999/xhtml" lang="en-AU">
                            <table border="5">
                                <caption>Immunisations</caption>
                                <thead>
                                    <tr>
                                        <th>Vaccine</th>
                                        <th>Date administered</th>
                                    </tr>
                                </thead>
                                <tbody>
                                    <tr>
                                        <td>diphtheria + tetanus</td>
                                        <td>15 APR 2018</td>
                                        <td/>
                                    </tr>
                                </tbody>
                            </table>
                        </div>
                    </text>
                    <entry>
                        <reference value="urn:uuid:3e2a29a1-3a3c-4a53-bb1b-66588e9bd147"/>
                    </entry>
                </section>
            </Composition>
        </resource>
    </entry>
    <!--    Patient    -->
    <entry>
        <fullUrl value="urn:uuid:cc246543-a0da-4ead-9ed6-5e064fea9ff7"/>
        <resource>
            <Patient xmlns="http://hl7.org/fhir">
                <id value="cc246543-a0da-4ead-9ed6-5e064fea9ff7"/>
                <text>
                    <status value="generated"/>
                    <div xmlns="http://www.w3.org/1999/xhtml">
                        <p>
                            <h3>Derived Narrative with Details</h3>
                        </p>
                        <p>
                            <b>Mr Zhang Wei</b>
                        </p>
                        <p>
                            <b>IHI:</b> 8003608000228437   <b>Medicare Number:</b> 29533070311
                        </p>
                        <p>
                            <b>Date Of Birth:</b> 1969-05-03 
                        </p>
                        <p>
                            <b>Country of Birth:</b> China    <b>Year of Arrival:</b> 2017
                        </p>
                        <p>
                            <b>Indigenous Status:</b> Neither Aboriginal nor Torres Strait Islander origin
                        </p>
                        
                        <p>
                            <b>Interpreter Required?</b> Yes   <b>Preferred Language:</b> Cantonese (yue)
                        </p>
                    </div>
                </text>
                <extension url="http://hl7.org/fhir/StructureDefinition/patient-birthPlace">
                    <valueAddress>
                        <text value="China"/>
                        <country value="CHN"/>
                    </valueAddress>
                </extension>
                <extension url="http://hl7.org.au/fhir/StructureDefinition/indigenous-status">
                    <valueCoding>
                        <system
                            value="https://healthterminologies.gov.au/fhir/CodeSystem/australian-indigenous-status-1"/>
                        <code value="4"/>
                        <display value="Neither Aboriginal nor Torres Strait Islander origin"/>
                    </valueCoding>
                </extension>
                <extension url="http://hl7.org/fhir/StructureDefinition/patient-interpreterRequired">
                    <valueBoolean value="true"/>
                </extension>
                <extension url="http://hl7.org.au/fhir/StructureDefinition/date-of-arrival">
                    <valueDate value="2017"/> 
                </extension>
                <identifier>
                    <extension url="http://hl7.org.au/fhir/StructureDefinition/ihi-status">
                        <valueCoding>
                            <system value="https://healthterminologies.gov.au/fhir/CodeSystem/ihi-status-1"/>
                            <code value="active"/>
                        </valueCoding>
                    </extension>
                    <extension url="http://hl7.org.au/fhir/StructureDefinition/ihi-record-status">
                        <valueCoding>
                            <system
                                value="https://healthterminologies.gov.au/fhir/CodeSystem/ihi-record-status-1"/>
                            <code value="verified"/>
                            <display value="verified"/>
                        </valueCoding>
                    </extension>
                    <type>
                        <coding>
                            <system value="http://terminology.hl7.org/CodeSystem/v2-0203"/>
                            <code value="NI"/>
                        </coding>
                        <text value="IHI"/>
                    </type>
                    <system value="http://ns.electronichealth.net.au/id/hi/ihi/1.0"/>
                    <value value="8003608000228437"/>
                </identifier>
                <identifier>
                    <type>
                        <coding>
                            <system value="http://terminology.hl7.org/CodeSystem/v2-0203"/>
                            <code value="MC"/>
                        </coding>
                        <text value="Medicare Number"/>
                    </type>
                    <system value="http://ns.electronichealth.net.au/id/medicare-number"/>
                    <value value="29533070311"/>
                </identifier>
                <name>
                    <family value="Zhang"/>
                    <given value="Wei"/>
                    <prefix value="Mr"/>
                </name>
                <gender value="male"/>
                <birthDate value="1969-05-03">
                    <extension url="http://hl7.org.au/fhir/StructureDefinition/date-accuracy-indicator">
                        <valueCoding>
                            <system
                                value="https://healthterminologies.gov.au/fhir/CodeSystem/date-accuracy-indicator-1"/>
                            <code value="AAA"/>
                            <display value="Day, month and year are accurate"/>
                        </valueCoding>
                    </extension>
                </birthDate>
                <communication>
                    <language>
                        <coding>
                            <system value="urn:ietf:bcp:47"/>
                            <code value="yue"/>
                        </coding>
                        <text value="Cantonese"/>
                    </language>
                    <preferred value="true"/>
                </communication>
            </Patient>
        </resource>
    </entry>
    <!--    PractitionerRole    -->
    <entry>
        <fullUrl value="urn:uuid:45cad6ac-e9a3-418a-8480-4e64132849f2"/>
        <resource>
            <PractitionerRole xmlns="http://hl7.org/fhir">
                <id value="45cad6ac-e9a3-418a-8480-4e64132849f2"/>
                <identifier>
                    <type>
                        <coding>
                            <system value="http://terminology.hl7.org.au/CodeSystem/v2-0203"/>
                            <code value="UPIN"/>
                        </coding>
                        <text value="Medicare Provider Number"/>
                    </type>
                    <system value="http://ns.electronichealth.net.au/id/medicare-provider-number"/>
                    <value value="5544887B"/>
                </identifier>
                <identifier>
                    <type>
                        <coding>
                            <system value="http://terminology.hl7.org/CodeSystem/v2-0203"/>
                            <code value="NPI"/>
                            <display value="National provider identifier"/>
                        </coding>
                        <text value="HPI-I"/>
                    </type>
                    <system value="http://ns.electronichealth.net.au/id/hi/hpii/1.0"/>
                    <value value="8003619900015717"/>
                </identifier>
                <practitioner>
                    <reference value="urn:uuid:40a94071-8373-4d53-a788-63b79c75a3c1"/>
                </practitioner>
                <organization>
                    <reference value="urn:uuid:021fff67-c5ec-438f-9520-ce9bafee1306"/>
                </organization>
                <code>
                    <coding>
                        <system value="http://www.abs.gov.au/ausstats/abs@.nsf/mf/1220.0"/>
                        <code value="253111"/>
                        <display value="General Practitioner"/>
                    </coding>
                    <text value="GP"/>
                </code>
                <telecom>
                    <system value="email"/>
                    <value value="bhelpman@example.devonportgp.com.au"/>
                    <use value="work"/>
                </telecom>
            </PractitionerRole>
        </resource>
    </entry>
    <!--    Practitioner    -->
    <entry>
        <fullUrl value="urn:uuid:40a94071-8373-4d53-a788-63b79c75a3c1"/>
        <resource>
            <Practitioner xmlns="http://hl7.org/fhir">
                <id value="40a94071-8373-4d53-a788-63b79c75a3c1"/>
                <identifier>
                    <type>
                        <coding>
                            <system value="http://terminology.hl7.org/CodeSystem/v2-0203"/>
                            <code value="NPI"/>
                            <display value="National provider identifier"/>
                        </coding>
                        <text value="HPI-I"/>
                    </type>
                    <system value="http://ns.electronichealth.net.au/id/hi/hpii/1.0"/>
                    <value value="8003619900015717"/>
                </identifier>
                <name>
                    <use value="official"/>
                    <family value="Helpman"/>
                    <given value="Barry"/>
                    <suffix value="M.D."/>
                </name>
                <telecom>
                    <system value="email"/>
                    <value value="bhelpman@example.devonportgp.com.au"/>
                    <use value="work"/>
                </telecom>
                <qualification>
                    <identifier>
                        <type>
                            <coding>
                                <system value="http://terminology.hl7.org.au/CodeSystem/v2-0203"/>
                                <code value="AHPRA"/>
                                <display value="Australian Health Practitioner Regulation Agency Registration Number"/>
                            </coding>
                            <text value="AHPRA Registration Number"/>
                        </type>
                        <system value="http://hl7.org.au/id/ahpra-registration-number"/>
                        <value value="MED0000932850"/>
                    </identifier>
                    <code>
                        <coding>
                            <system value="http://www.abs.gov.au/ausstats/abs@.nsf/mf/1220.0"/>
                            <code value="253111"/>
                            <display value="General Medical Practitioner"/>
                        </coding>
                        <text value="AHPRA qualification for General Practitioner"/>
                    </code>
                    <issuer>
                        <display value="AHPRA"/>
                    </issuer>
                </qualification>
            </Practitioner>
        </resource>
    </entry>
    <!--    Organization    -->
    <entry>
        <fullUrl value="urn:uuid:021fff67-c5ec-438f-9520-ce9bafee1306"/>
        <resource>
            <Organization xmlns="http://hl7.org/fhir">
                <id value="021fff67-c5ec-438f-9520-ce9bafee1306"/>
                <identifier>
                    <type>
                        <text value="ABN"/>
                    </type>
                    <system value="http://hl7.org.au/id/abn"/>
                    <value value="51824754455"/>
                </identifier>
                <name value="Devonport Family Medicine Clinic"/>
                <telecom>
                    <system value="email"/>
                    <value value="reception@example.dfmc.com.au"/>
                    <use value="work"/>
                </telecom>
                <telecom>
                    <system value="fax"/>
                    <value value="(03) 8543 5557"/>
                    <use value="work"/>
                </telecom>
                <telecom>
                    <system value="phone"/>
                    <value value="(03) 8543 5556"/>
                    <use value="work"/>
                </telecom>
                <address>
                    <type value="postal"/>
                    <line value="LPO Box 235"/>
                    <city value="Strahan"/>
                    <state value="TAS"/>
                    <postalCode value="7468"/>
                    <country value="AU"/>
                </address>
            </Organization>
        </resource>
    </entry>
    <!--    MedicationStatement    -->
    <entry>
        <fullUrl value="urn:uuid:2fe9873a-0eea-415a-89ae-0b82ff2b3d0b"/>
        <resource>
            <MedicationStatement xmlns="http://hl7.org/fhir">
                <id value="2fe9873a-0eea-415a-89ae-0b82ff2b3d0b"/>
                <status value="active"/>
                <medicationCodeableConcept>
                    <coding>
                        <system value="http://snomed.info/sct"/>
                        <code value="22087011000036100"/>
                        <display value="candesartan cilexetil 32 mg tablet"/>
                    </coding>
                    <text value="Candesartan 32mg"/>
                </medicationCodeableConcept>
                <subject>
                    <reference value="urn:uuid:cc246543-a0da-4ead-9ed6-5e064fea9ff7"/>
                </subject>
                <dosage>
                    <text value="1 tablet daily"/>
                    <timing>
                        <repeat>
                            <frequency value="1"/>
                            <period value="1"/>
                            <periodUnit value="d"/>
                        </repeat>
                    </timing>
                    <doseAndRate>
                        <doseQuantity>
                            <value value="1"/>
                            <unit value="tablet"/>
                            <system value="http://snomed.info/sct"/>
                            <code value="63011000036109"/>
                        </doseQuantity>
                    </doseAndRate>
                </dosage>
            </MedicationStatement>
        </resource>
    </entry>
    <!--    Observation    -->
    <entry>
        <fullUrl value="urn:uuid:552bcf1e-5e3e-45b7-9539-0a99ba860146"/>
        <resource>
            <Observation xmlns="http://hl7.org/fhir">
                <id value="552bcf1e-5e3e-45b7-9539-0a99ba860146"/>
                <status value="final"/>
                <!--    TBD - Determine appropriate category for observations of this nature    -->
                <code>
                    <coding>
                        <system value="http://terminology.hl7.org/CodeSystem/v3-ActCode"/>
                        <code value="ASSERTION"/>
                        <display value="Assertion"/>
                    </coding>
                </code>
                <subject>
                    <reference value="urn:uuid:cc246543-a0da-4ead-9ed6-5e064fea9ff7"/>
                </subject>
                <effectiveDateTime value="2018-09-21"/>
                <performer>
                    <reference value="urn:uuid:45cad6ac-e9a3-418a-8480-4e64132849f2"/>
                </performer>
                <valueCodeableConcept>
                    <coding>
                        <system value="http://snomed.info/sct"/>
                        <code value="1224831000168103"/>
                        <display value="No relevant medical history"/>
                    </coding>
                </valueCodeableConcept>
            </Observation>
        </resource>
    </entry>
    <!--    Immunization    -->
    <entry>
        <fullUrl value="urn:uuid:3e2a29a1-3a3c-4a53-bb1b-66588e9bd147"/>
        <resource>
            <Immunization xmlns="http://hl7.org/fhir">
                <id value="3e2a29a1-3a3c-4a53-bb1b-66588e9bd147"/>
                <status value="completed"/>
                <vaccineCode>
                    <coding>
                        <system value="http://snomed.info/sct"/>
                        <code value="837281000168100"/>
                        <display value="diphtheria 2 units + tetanus 20 units vaccine injection, 0.5 mL syringe"/>
                    </coding>
                </vaccineCode>
                <patient>
                    <reference value="urn:uuid:cc246543-a0da-4ead-9ed6-5e064fea9ff7"/>
                </patient>
                <occurrenceDateTime value="2018-04-15"/>
                <primarySource value="true"/>
            </Immunization>
        </resource>
    </entry>
</Bundle>
