<?xml version="1.0" encoding="UTF-8"?>
<Bundle xmlns="http://hl7.org/fhir">
    <id value="dr-path-fbc-01"/>
    <meta>
        <lastUpdated value="2016-07-13T11:55:33+10:00"/>
    </meta>
    <identifier> 
        <system value="urn:ietf:rfc:3986"/> 
        <value value="urn:uuid:fcb6b07b-4e0c-4ec6-94c2-00b744ffbb23"/> 
    </identifier> 
    <type value="document"/>
    <timestamp value="2016-07-13T11:55:33+10:00"/>
    <!--Composition (MHR FBC Report)-->
    <entry>
        <fullUrl value="urn:uuid:f6287b69-19ab-4747-a568-5e1e4ad5d0d1"/>
        <resource>
            <Composition>
                <id value="f6287b69-19ab-4747-a568-5e1e4ad5d0d1"/>
                <meta>
                    <lastUpdated value="2016-07-13T11:55:33+10:00"/>
                    <profile
                        value="http://ns.electronichealth.net.au/ci/fhir/4.0/StructureDefinition/composition-pathreport-1"
                    />
                </meta>
                <language value="en-AU"/>
                <!--WORKAROUND: The contents of Composition.text are a workaround to enable the tooling used to generate this implementation guide
                to generate a human friendly rendering instead of forcing the reader to refer to XML or JSON format to view the full example narrative.
                The contents below is not consistent with good or recommended practice. -->
                <text>
                    <status value="generated"/>
                    <div xmlns="http://www.w3.org/1999/xhtml" lang="en-AU">
                        <table
                            style="border-collapse:collapse;border-spacing:0;width:100%;background-color:#000000">
                            <tr>
                                <th
                                    style="padding-top: 40px;
                                    vertical-align: top;
                                    text-align: center;
                                    margin 0px;
                                    font-size: 20px;
                                    font-family: Helvetica;
                                    color: #FFFFFF;
                                    font-weight: bold;
                                    word-wrap: break-word;"
                                    colspan="9">Pathology Report</th>
                            </tr>
                            <tr>
                                <td
                                    style="vertical-align: top;
                                    text-align: center;
                                    margin 0px;
                                    font-size: 15px;
                                    font-family: Helvetica;
                                    color: #FFFFFF;
                                    font-weight: bold;"
                                    colspan="9">13 July 2016 11:45</td>
                            </tr>
                            <tr>
                                <td
                                    style="display: inline; 
                                    margin-right: 20px; 
                                    font-size: 13px;
                                    color: #FFFFFF;"
                                    >Mrs. Anne <span class="bold">THOMPSON</span></td>
                                <td
                                    style="display: inline;
                                    font-size: 12px;
                                    color: #FFFFFF;"
                                    >DoB</td>
                                <td
                                    style="margin-left: 0px;
                                    display: inline;
                                    font-size: 12px;
                                    margin-right: 30px;
                                    color: #FFFFFF;"
                                    >11 Oct 1978</td>
                                <td
                                    style="display: inline;
                                    font-size: 12px;
                                    color: #FFFFFF;"
                                    >GENDER</td>
                                <td
                                    style="margin-left: 0px;
                                    display: inline;
                                    font-size: 12px;
                                    margin-right: 30px;
                                    color: #FFFFFF;"
                                    >Female</td>
                                <td
                                    style="display: inline;
                                    font-size: 11px;
                                    color: #FFFFFF;"
                                    >IHI</td>
                                <td
                                    style="margin-left: 0px;
                                    display: inline;
                                    font-size: 12px;
                                    margin-right: 30px;
                                    color: #FFFFFF;"
                                    >8003 6080 0022 8445</td>
                                <td
                                    style="display: inline;
                                    font-size: 12px;
                                    color: #FFFFFF;"
                                    >INDIGENOUS STATUS</td>
                                <td
                                    style="margin-left: 0px;
                                    display: inline;
                                    font-size: 12px;
                                    margin-right: 30px;
                                    color: #FFFFFF;
                                    word-wrap: break-word;"
                                    >Aboriginal but not Torres Strait Islander origin</td>
                            </tr>
                        </table>
                        <table
                            style="border-collapse:collapse;border-spacing:0;width:100%;background-color:#696969">
                            <tbody>
                                <tr>
                                    <td
                                        style="vertical-align: top;
                            text-align: center;
                            margin 0px;
                            font-size: 15px;
                            font-family: Helvetica;
                            color: #FFFFFF;
                            font-weight: bold;"
                                        colspan="9">START OF DOCUMENT</td>
                                </tr>
                            </tbody>
                        </table>
                        <table style="width:100%">
                            <tbody>
                                <tr>
                                    <td style="width:50%">
                                        <table>
                                            <thead>
                                                <tr>
                                                  <th
                                                  style="padding-top: 15px;
                                                        vertical-align: top;
                                                        text-align: center;
                                                        margin 0px;
                                                        font-family: Helvetica;
                                                        font-size:14px;
                                                        font-weight: bold;
                                                        text-decoration: underline;
                                                        text-align: left;
                                                        word-wrap: break-word;"
                                                  colspan="1">Requester</th>
                                                </tr>
                                            </thead>
                                            <tbody>
                                                <tr>
                                                    <td>Dr Sarah Bondiali (General Practitioner)</td>
                                                </tr>
                                                <tr>
                                                    <td>Bondi GP Medical Center NSW</td>
                                                </tr>
                                            </tbody>
                                        </table>
                                        <table>
                                            <thead>
                                                <tr>
                                                  <th
                                                  style="padding-top: 15px;
                                                        vertical-align: top;
                                                        text-align: center;
                                                        margin 0px;
                                                        font-family: Helvetica;
                                                        font-size:14px;
                                                        font-weight: bold;
                                                        text-decoration: underline;
                                                        text-align: left;
                                                        word-wrap: break-word;"
                                                  colspan="2">Request Details</th>
                                                </tr>
                                            </thead>
                                            <tbody>
                                                <tr>
                                                  <td style="font-weight: bold;">Request
                                                  Date/Time:</td>
                                                  <td>10 July 2016 11:15</td>
                                                </tr>
                                                <tr>
                                                  <td style="font-weight: bold;">Requested
                                                  Test:</td>
                                                  <td>FBC</td>
                                                </tr>
                                            </tbody>
                                        </table>
                                    </td>
                                    <td>
                                        <table>
                                            <thead>
                                                <tr>
                                                  <th
                                                  style="padding-top: 15px;
                                                        vertical-align: top;
                                                        text-align: center;
                                                        margin 0px;
                                                        font-family: Helvetica;
                                                        font-size:14px;
                                                        font-weight: bold;
                                                        text-decoration: underline;
                                                        text-align: left;
                                                        word-wrap: break-word;"
                                                  colspan="2">Author</th>
                                                </tr>
                                            </thead>
                                            <tbody>
                                                <tr>
                                                    <td>Dr. Robert Brown (Haematologist)</td>
                                                </tr>
                                                <tr>
                                                    <td>0491 578 888</td>
                                                </tr>
                                                <tr>
                                                  <td/>
                                                </tr>
                                                <tr>
                                                    <td>Randwick Laboratories Sydney (NATA:
                                                        100201) (ABN: 41824753000)</td>
                                                </tr>
                                                <tr>
                                                    <td>1342 Sydney St, Randwick, NSW, 2031</td>
                                                </tr>
                                                <tr>
                                                    <td>(02) 5550 8994</td>
                                                </tr>
                                            </tbody>
                                        </table>
                                    </td>
                                </tr>
                                <tr>
                                    <td>
                                        <table>
                                            <thead>
                                                <tr>
                                                  <th
                                                  style="padding-top: 15px;
                                                        vertical-align: top;
                                                        text-align: center;
                                                        margin 0px;
                                                        font-family: Helvetica;
                                                        font-size:14px;
                                                        font-weight: bold;
                                                        text-decoration: underline;
                                                        text-align: left;
                                                        word-wrap: break-word;"
                                                  colspan="2">Report Details</th>
                                                </tr>
                                            </thead>
                                            <tbody>
                                                <tr>
                                                  <td style="font-weight: bold;">Report
                                                  Date/Time:</td>
                                                    <td>13 July 2016 11:45</td>
                                                </tr>
                                                <tr>
                                                  <td style="font-weight: bold;">Report Name:</td>
                                                    <td>Full Blood Count 2016-07-13</td>
                                                </tr>
                                                <tr>
                                                  <td style="font-weight: bold;">Report ID:</td>
                                                    <td>652973694</td>
                                                </tr>
                                                <tr>
                                                  <td style="font-weight: bold;">Report Status:</td>
                                                  <td>Preliminary</td>
                                                </tr>
                                                <tr>
                                                  <td style="font-weight: bold;">Diagnostic
                                                  Service(s):</td>
                                                  <td>Hematology</td>
                                                </tr>
                                            </tbody>
                                        </table>
                                    </td>
                                </tr>
                            </tbody>
                        </table>
                        <h1
                            style=" width: 100%;
                            font-size: 17px;
                            font-weight: bold;
                            color: #000000;
                            margin-bottom: 5px;
                            margin-top: 0px;
                            border-bottom: 1px SOLID #000000;;
                            padding: 0px;
                            word-wrap: break-word;"
                            >Pathology Report</h1>
                        <table style="border-collapse:collapse;border-spacing:0;width:100%;">
                            <thead>
                                <tr>
                                    <th>
                                        <tr style="background-color:#DCDCDC">
                                            <th
                                                style="padding-top: 15px;
                                            vertical-align: top;
                                            text-align: center;
                                            margin 0px;
                                            font-family: Helvetica;
                                            font-size: 14px;
                                            font-weight: bold;
                                            text-align: left;
                                            word-wrap: break-word;"
                                                >Test Name</th>
                                            <th
                                                style="padding-top: 15px;
                                                vertical-align: top;
                                                text-align: center;
                                                margin 0px;
                                                font-family: Helvetica;
                                                font-size: 14px;
                                                font-weight: bold;
                                                text-align: left;
                                                word-wrap: break-word;"
                                                >Diagnostic Service</th>
                                            <th
                                                style="padding-top: 15px;
                                            vertical-align: top;
                                            text-align: center;
                                            margin 0px;
                                            font-family: Helvetica;
                                            font-weight: bold;
                                            font-size: 14px;
                                            text-align: left;
                                            word-wrap: break-word;"
                                                >Test Date/Time</th>
                                            <th
                                                style="padding-top: 15px;
                                                vertical-align: top;
                                                text-align: center;
                                                margin 0px;
                                                font-family: Helvetica;
                                                font-size: 14px;
                                                font-weight: bold;
                                                text-align: left;
                                                word-wrap: break-word;"
                                                >Status</th>
                                        </tr>
                                    </th>
                                </tr>
                            </thead>
                            <tbody>
                                <tbody>
                                    <tr>
                                        <td>FBC</td>
                                        <td>Hematology</td>
                                        <td>13 July 2016 10:30</td>
                                        <td>Preliminary</td>
                                    </tr>
                                    <tr>
                                        <td>ESR</td>
                                        <td>Hematology</td>
                                        <td>13 July 2016 10:30</td>
                                        <td>Preliminary</td>
                                    </tr>
                                </tbody>
                            </tbody>
                        </table>
                        <p>
                            <a
                                href="https://github.com/AuDigitalHealth/ci-fhir-r4/tree/master/examples/Full-Blood-Count-2016-07-13.pdf"
                                >Link to PDF document</a>
                        </p>
                        <table
                            style="border-collapse:collapse;border-spacing:0;width:100%;background-color:#696969">
                            <tbody>
                                <tr>
                                    <td
                                        style="vertical-align: top;
                            text-align: center;
                            margin 0px;
                            font-size: 15px;
                            font-family: Helvetica;
                            color: #FFFFFF;
                            font-weight: bold;"
                                        colspan="9">ADMINISTRATIVE DETAILS</td>
                                </tr>
                            </tbody>
                        </table>
                        <table
                            style="border-collapse:collapse;border-spacing:0;width:100%;background-color:#DCDCDC">
                            <tbody>
                                <tr>
                                    <td>
                                        <table>
                                            <thead>
                                                <tr>
                                                  <th
                                                  style="padding-top: 15px;
                                            vertical-align: top;
                                            text-align: center;
                                            margin 0px;
                                            font-family: Helvetica;
                                            font-size:14px;
                                            font-weight: bold;
                                            font-style: italic;
                                            text-align: left;
                                            word-wrap: break-word;"
                                                  colspan="2">Patient</th>
                                                </tr>
                                            </thead>
                                            <tbody>
                                                <tr>
                                                  <td style="font-weight: bold; color:#808080"
                                                  >Name</td>
                                                  <td>Mrs Anne THOMPSON</td>
                                                </tr>
                                                <tr>
                                                  <td style="font-weight: bold; color:#808080"
                                                  >Gender</td>
                                                  <td>Female</td>
                                                </tr>
                                                <tr>
                                                  <td style="font-weight: bold; color:#808080"
                                                  >Indigenous Status</td>
                                                    <td>Aboriginal but not Torres Strait Islander origin</td>
                                                </tr>
                                                <tr>
                                                  <td style="font-weight: bold; color:#808080">Date
                                                  of Birth</td>
                                                    <td>11 Oct 1978 (42y)</td>
                                                </tr>
                                                <tr>
                                                  <td style="font-weight: bold; color:#808080"
                                                  >IHI</td>
                                                  <td>8003608000228437</td>
                                                </tr>
                                                <tr>
                                                  <td style="font-weight: bold; color:#808080"
                                                  >Medicare Number</td>
                                                    <td>6951449601</td>
                                                </tr>
                                                <tr>
                                                    <td style="font-weight: bold; color:#808080"
                                                        >MRN Number</td>
                                                    <td>123456</td>
                                                </tr>
                                            </tbody>
                                        </table>
                                    </td>
                                    <td>
                                        <table>
                                            <thead>
                                                <tr>
                                                  <th
                                                  style="padding-top: 15px;
                                            vertical-align: top;
                                            text-align: center;
                                            margin 0px;
                                            font-family: Helvetica;
                                            font-size:14px;
                                            font-style: italic;
                                            font-weight: bold;
                                            text-align: left;
                                            word-wrap: break-word;"
                                                  colspan="2">Author</th>
                                                </tr>
                                            </thead>
                                            <tbody>
                                                <tr>
                                                  <td style="font-weight: bold;color:#808080"
                                                  >Name</td>
                                                    <td>Dr. Robert Brown (Haematologist)</td>
                                                </tr>
                                                <tr>
                                                  <td style="font-weight: bold; color:#808080"
                                                  >Phone</td>
                                                    <td>0491 578 888</td>
                                                </tr>
                                                <tr>
                                                  <td style="font-weight: bold; color:#808080"
                                                  >Organisation</td>
                                                    <td>Randwick Laboratories Sydney (NATA: 100201) (ABN: 41824753000)</td>
                                                </tr>
                                                <tr>
                                                  <td style="font-weight: bold; color:#808080">Work
                                                  Place</td>
                                                    <td>1342 Sydney St, Randwick, NSW, 2031</td>
                                                </tr>
                                                <tr>
                                                    <td style="font-weight: bold; color:#808080"
                                                        >Phone</td>
                                                    <td>(02) 5550 8994</td>
                                                </tr>
                                            </tbody>
                                        </table>
                                        <table>
                                            <thead>
                                                <tr>
                                                  <th
                                                  style="padding-top: 15px;
                                            vertical-align: top;
                                            text-align: center;
                                            margin 0px;
                                            font-family: Helvetica;
                                            font-size:14px;
                                            font-weight: bold;
                                            font-style: italic;
                                            text-align: left;
                                            word-wrap: break-word;"
                                                  colspan="2">Clinical Document Details</th>
                                                </tr>
                                            </thead>
                                            <tbody>
                                                <tr>
                                                  <td style="font-weight: bold; color:#808080"
                                                  >Document Type</td>
                                                    <td>100.32001 Pathology Report</td>
                                                </tr>
                                                <tr>
                                                  <td style="font-weight: bold; color:#808080"
                                                  >Document Created Date/Time</td>
                                                    <td>13 July 2016 11:55:33</td>
                                                </tr>
                                                <tr>
                                                    <td style="font-weight: bold; color:#808080"
                                                        >Date/Time Authored</td>
                                                    <td>13 July 2016 11:45</td>
                                                </tr>
                                                <tr>
                                                  <td style="font-weight: bold; color:#808080"
                                                  >Date/Time Attested</td>
                                                    <td>13 July 2016 11:45</td>
                                                </tr>
                                                <tr>
                                                  <td style="font-weight: bold; color:#808080"
                                                  >Document ID</td>
                                                    <td>fcb6b07b-4e0c-4ec6-94c2-00b744ffbb23</td>
                                                </tr>
                                                <tr>
                                                  <td style="font-weight: bold; color:#808080"
                                                  >Document Business ID</td>
                                                    <td>f6287b69-19ab-4747-a568-5e1e4ad5d0d1</td>
                                                </tr>
                                                <tr>
                                                  <td style="font-weight: bold; color:#808080"
                                                  >Document Status</td>
                                                  <td>Preliminary</td>
                                                </tr>
                                            </tbody>
                                        </table>
                                    </td>
                                </tr>
                            </tbody>
                        </table>
                        <table
                            style="border-collapse:collapse;border-spacing:0;width:100%;background-color:#696969">
                            <tbody>
                                <tr>
                                    <td
                                        style="vertical-align: top;
                            text-align: center;
                            margin 0px;
                            font-size: 15px;
                            font-family: Helvetica;
                            color: #FFFFFF;
                            font-weight: bold;"
                                        colspan="9">END OF DOCUMENT</td>
                                </tr>
                            </tbody>
                        </table>
                    </div>

                </text>
                <identifier> 
                    <system value="urn:ietf:rfc:3986"/> 
                    <value value="urn:uuid:f6287b69-19ab-4747-a568-5e1e4ad5d0d1"/> 
                </identifier>
                <status value="preliminary"/>
                <type>
                    <coding>
                        <system value="https://healthterminologies.gov.au/fhir/CodeSystem/nctis-data-components-1"/>
                        <code value="100.32001"/>
                        <display value="Pathology Report"/>
                    </coding>
                </type>
                <subject>
                    <reference value="urn:uuid:9aeff67b-e9df-46dc-a366-2a33ec6dba1a"/>
                </subject>
                <date value="2016-07-13T11:45:33+10:00"/>
                <author>
                    <reference value="urn:uuid:9f8c3cdc-4889-4eee-8b5f-fd2c8ba716b7"/>
                </author>
                <title value="Pathology Report"/>
                <attester>
                    <mode value="legal"/>
                    <time value="2016-07-13T11:45:33+10:00"/>
                    <party>
                        <reference value="urn:uuid:9f8c3cdc-4889-4eee-8b5f-fd2c8ba716b7"/>
                    </party>
                </attester>
                <custodian>
                    <reference value="urn:uuid:9aac0c75-2467-4245-8ea9-c25d96bbd3eb"/>
                </custodian>
                <section>
                    <title value="Pathology Report"/>
                    <code>
                        <coding>
                            <system value="http://loinc.org"/>
                            <code value="11526-1"/>
                        </coding>
                    </code>
                    <text>
                        <status value="generated"/>
                        <div xmlns="http://www.w3.org/1999/xhtml" lang="en-AU">
                            <table border="1">
                                <thead>
                                    <tr>
                                        <th>Test Name</th>
                                        <th>Diagnostic Service</th>
                                        <th>Test Date/Time</th>
                                        <th>Status</th>
                                    </tr>
                                </thead>
                                <tbody>
                                    <tr>
                                        <td>Full Blood Count</td>
                                        <td>Hematology</td>
                                        <td>06 Jan 2019 09:45</td>
                                        <td>Final</td>
                                    </tr>
                                </tbody>
                            </table>
                            <p>
                                <a
                                    href="https://github.com/AuDigitalHealth/ci-fhir-r4/tree/master/examples/Full-Blood-Count-2016-07-13.pdf"
                                    >Link to PDF document</a>
                            </p>
                        </div>
                    </text>
                    <entry>
                        <reference value="urn:uuid:d13ab38b-7d90-4486-a60f-dfb0f34f888c"/>
                    </entry>
                </section>
            </Composition>
        </resource>
    </entry>
    <!--DiagnosticReport referenced in Composition.section.entry-->
    <entry>
        <fullUrl value="urn:uuid:d13ab38b-7d90-4486-a60f-dfb0f34f888c"/>
        <resource>
            <DiagnosticReport>
                <id value="d13ab38b-7d90-4486-a60f-dfb0f34f888c"/>
                <meta>
                    <profile
                        value="http://ns.electronichealth.net.au/ci/fhir/StructureDefinition/diagnosticreport-path-mhr-1"
                    />
                </meta>
                <language value="en-AU"/>
                <identifier>
                    <type>
                        <coding>
                            <system value="http://terminology.hl7.org/CodeSystem/v2-0203"/>
                            <code value="FILL"/>
                            <display value="Filler Identifier"/>
                        </coding>
                    </type>
                    <system value="http://randwicklabs.example.com/labnum/1.0.2"/>
                    <value value="652973694"/>
                </identifier>
                <basedOn>
                    <reference value="urn:uuid:34a75ae5-f22a-4191-98e5-43ad2a4f4df0"/>
                </basedOn>
                <status value="preliminary"/> 
                <category>
                    <coding>
                        <system value="http://terminology.hl7.org/CodeSystem/v2-0074"/>
                        <code value="HM"/>
                        <display value="Hematology"/>
                    </coding>
                </category>
                <category>
                    <coding>
                        <system value="http://terminology.hl7.org/CodeSystem/v2-0074"/>
                        <code value="LAB"/>
                    </coding>
                </category>
                <code>
                    <coding>
                        <system value="http://loinc.org"/>
                        <code value="57782-5"/>
                        <display value="CBC with Ordered Manual Differential panel - Blood"/>
                    </coding>
                </code>
                <subject>
                    <reference value="urn:uuid:9aeff67b-e9df-46dc-a366-2a33ec6dba1a"/>
                </subject>
                <effectiveDateTime value="2016-07-13T10:30:10+10:00"/>
                <issued value="2016-07-13T11:45:33+10:00"/>
                <performer>
                    <reference value="urn:uuid:9f8c3cdc-4889-4eee-8b5f-fd2c8ba716b7"/>
                </performer>
                <performer>
                    <reference value="urn:uuid:9aac0c75-2467-4245-8ea9-c25d96bbd3eb"/>
                </performer>
                <result>
                    <reference value="urn:uuid:764c70f0-a104-4c9a-beb8-ab478064ff9c"/>
                </result>
                <result>
                    <reference value="urn:uuid:593e3cc4-3b23-4fa8-9e1b-8110d4b9df19"/>
                </result>
                <presentedForm>
                    <contentType value="application/pdf"/>
                    <!-- Placeholder url value: Absolute URL to GitHub repository for attachment is provided as a workaround for demonstration purposes only  -->
                    <url
                        value="https://github.com/AuDigitalHealth/ci-fhir-r4/tree/master/examples/Full-Blood-Count-2016-07-13.pdf"/>
                    <hash value="B76983EFF21645A601853319EFEF524140BE6539"/>
                    <title value="Full Blood Count 2016-07-13"/>
                </presentedForm>
            </DiagnosticReport>
        </resource>
    </entry>
    <!-- FBC Observation referenced in DiagnosticReport.result-->
    <entry>
        <fullUrl value="urn:uuid:764c70f0-a104-4c9a-beb8-ab478064ff9c"/>
        <resource>
            <Observation>
                <id value="764c70f0-a104-4c9a-beb8-ab478064ff9c"/>
                <identifier>
                    <type>
                        <coding>
                            <system value="http://terminology.hl7.org/CodeSystem/v2-0203"/>
                            <code value="FILL"/>
                            <display value="Filler Identifier"/>
                        </coding>
                    </type>
                    <system value="http://randwicklabs.example.com/labnum/1.0.2"/>
                    <value value="652973694"/>
                </identifier>
                <status value="preliminary"/>
                <category>
                    <coding>
                        <system value="http://terminology.hl7.org/CodeSystem/v2-0074"/>
                        <code value="HM"/>
                        <display value="Hematology"/>
                    </coding>
                </category>
                <category>
                    <coding>
                        <system value="http://terminology.hl7.org/CodeSystem/observation-category"/>
                        <code value="laboratory"/>
                    </coding>
                </category>
                <code>
                    <coding>
                        <system value="http://loinc.org"/>
                        <code value="57782-5"/>
                        <display value="CBC with Ordered Manual Differential panel - Blood"/>
                    </coding>
                    <text value="FBC"/>
                </code>
                <subject>
                    <reference value="urn:uuid:9aeff67b-e9df-46dc-a366-2a33ec6dba1a"/>
                </subject>
                <effectiveDateTime value="2016-07-13T10:30:10+10:00"/>
                <performer>
                    <reference value="urn:uuid:9f8c3cdc-4889-4eee-8b5f-fd2c8ba716b7"/>
                </performer>
                <performer>
                    <reference value="urn:uuid:9aac0c75-2467-4245-8ea9-c25d96bbd3eb"/>
                </performer>
            </Observation>
        </resource>
    </entry>
    <!-- ESR Observation referenced in DiagnosticReport.result-->
    <entry>
        <fullUrl value="urn:uuid:593e3cc4-3b23-4fa8-9e1b-8110d4b9df19"/>
        <resource>
            <Observation>
                <id value="593e3cc4-3b23-4fa8-9e1b-8110d4b9df19"/>
                <identifier>
                    <type>
                        <coding>
                            <system value="http://terminology.hl7.org/CodeSystem/v2-0203"/>
                            <code value="FILL"/>
                            <display value="Filler Identifier"/>
                        </coding>
                    </type>
                    <system value="http://randwicklabs.example.com/labnum/1.0.2"/>
                    <value value="652973694"/>
                </identifier>
                <status value="preliminary"/>
                <category>
                    <coding>
                        <system value="http://terminology.hl7.org/CodeSystem/v2-0074"/>
                        <code value="HM"/>
                        <display value="Hematology"/>
                    </coding>
                </category>
                <category>
                    <coding>
                        <system value="http://terminology.hl7.org/CodeSystem/observation-category"/>
                        <code value="laboratory"/>
                    </coding>
                </category>
                <code>
                    <coding>
                        <system value="http://loinc.org"/>
                        <code value="30341-2"/>
                        <display value="Erythrocyte sedimentation rate"/>
                    </coding>
                    <text value="ESR"/>
                </code>
                <subject>
                    <reference value="urn:uuid:9aeff67b-e9df-46dc-a366-2a33ec6dba1a"/>
                </subject>
                <effectiveDateTime value="2016-07-13T10:30:10+10:00"/>
                <performer>
                    <reference value="urn:uuid:9f8c3cdc-4889-4eee-8b5f-fd2c8ba716b7"/>
                </performer>
                <performer>
                    <reference value="urn:uuid:9aac0c75-2467-4245-8ea9-c25d96bbd3eb"/>
                </performer>
            </Observation>
        </resource>
    </entry>
    <!--ServiceRequest referenced in DiagnosticReport.basedOn-->
    <entry>
        <fullUrl value="urn:uuid:34a75ae5-f22a-4191-98e5-43ad2a4f4df0"/>
        <resource>
            <ServiceRequest xmlns="http://hl7.org/fhir">
                <id value="34a75ae5-f22a-4191-98e5-43ad2a4f4df0"/>
                <status value="completed"/> 
                <intent value="order"/> 
                <category>
                    <coding>
                        <system value="http://snomed.info/sct"/>
                        <code value="108252007"/>
                        <display value="Laboratory procedure"/>
                    </coding>
                </category>
                <code>
                    <coding>
                        <system value="http://snomed.info/sct"/>
                        <code value="26604007"/>
                        <display value="Full blood count"/>
                    </coding>
                </code>
                <subject> 
                    <reference value="urn:uuid:9aeff67b-e9df-46dc-a366-2a33ec6dba1a"/> 
                </subject> 
                <authoredOn value="2016-07-10T11:15:00+10:00"/> 
                <requester> 
                    <reference value="urn:uuid:81d4d5f4-6dde-41f1-9973-89999a31c3f0"/> 
                </requester> 
            </ServiceRequest>
        </resource>
    </entry>
    <!--Patient referenced in Composition.subject; DiagnosticReport.subject; ServiceRequest.subject; Observation.subject-->
    <entry>
        <fullUrl value="urn:uuid:9aeff67b-e9df-46dc-a366-2a33ec6dba1a"/>
        <resource>
            <Patient xmlns="http://hl7.org/fhir">
                <id value="9aeff67b-e9df-46dc-a366-2a33ec6dba1a"/>
                <extension url="http://hl7.org.au/fhir/StructureDefinition/indigenous-status">
                    <valueCoding>
                        <system
                            value="https://healthterminologies.gov.au/fhir/CodeSystem/australian-indigenous-status-1"/>
                        <code value="1"/>
                        <display value="Aboriginal but not Torres Strait Islander origin"/>
                    </valueCoding>
                </extension>
                <identifier>
                    <extension url="http://hl7.org.au/fhir/StructureDefinition/ihi-status">
                        <valueCoding>
                            <system value="https://healthterminologies.gov.au/fhir/CodeSystem/ihi-status-1"/>
                            <code value="active"/>
                        </valueCoding>
                    </extension>
                    <extension url="http://hl7.org.au/fhir/StructureDefinition/ihi-record-status">
                        <valueCoding>
                            <system
                                value="https://healthterminologies.gov.au/fhir/CodeSystem/ihi-record-status-1"/>
                            <code value="verified"/>
                            <display value="verified"/>
                        </valueCoding>
                    </extension>
                    <type>
                        <coding>
                            <system value="http://terminology.hl7.org/CodeSystem/v2-0203"/>
                            <code value="NI"/>
                        </coding>
                        <text value="IHI"/>
                    </type>
                    <system value="http://ns.electronichealth.net.au/id/hi/ihi/1.0"/>
                    <value value="8003608000228445"/>
                </identifier>
                <identifier>
                    <type>
                        <coding>
                            <system value="http://terminology.hl7.org/CodeSystem/v2-0203"/>
                            <code value="MC"/>
                        </coding>
                        <text value="Medicare Number"/>
                    </type>
                    <system value="http://ns.electronichealth.net.au/id/medicare-number"/>
                    <value value="6951449601"/>
                </identifier>
                <identifier>
                    <type>
                        <coding>
                            <system value="http://terminology.hl7.org/CodeSystem/v2-0203"/>
                            <code value="MR"/>
                            <display value="Medical record number"/>
                        </coding>
                        <text value="Medical Record Number"/>
                    </type>
                    <system value="http://ns.electronichealth.net.au/id/hpio-scoped/medicalrecord/1.0/8003621566684455" />
                    <value value="123456" />
                    <assigner>
                        <display value="NSW Example Hospital"/>
                    </assigner>
                </identifier>
                <name>
                    <use value="official"/>
                    <text value="Mrs. Anne Thompson"/>
                    <family value="Thompson"/>
                    <given value="Anne"/>
                    <prefix value="Mrs"/>
                </name>
                <gender value="female"/>
                <birthDate value="1978-10-11"/>
                
                <communication>
                    <language>
                        <coding>
                            <system value="urn:ietf:bcp:47"/>
                            <code value="yub"/>
                        </coding>
                        <text value="Yugambal"/>
                    </language>
                </communication>
            </Patient>
        </resource>
    </entry>
    <!--PractitionerRole (9f8c3cdc-4889-4eee-8b5f-fd2c8ba716b7) referenced in Composition.author; Composition.attester.party; DiagnosticReport.performer;-->
    <entry>
        <fullUrl value="urn:uuid:9f8c3cdc-4889-4eee-8b5f-fd2c8ba716b7"/>
        <resource>
            <PractitionerRole xmlns="http://hl7.org/fhir">
                <id value="9f8c3cdc-4889-4eee-8b5f-fd2c8ba716b7"/>
                <identifier>
                    <type>
                        <coding>
                            <system value="http://terminology.hl7.org/CodeSystem/v2-0203"/>
                            <code value="NPI"/>
                            <display value="National provider identifier"/>
                        </coding>
                        <text value="HPI-I"/>
                    </type>
                    <system value="http://ns.electronichealth.net.au/id/hi/hpii/1.0"/>
                    <value value="8003614900041243"/>
                </identifier>
                <identifier>
                    <type>
                        <coding>
                            <system value="http://terminology.hl7.org/CodeSystem/v2-0203"/>
                            <code value="EI"/>
                            <display value="Employee number"/>
                        </coding>
                        <text value="Employee Number"/>
                    </type>
                    <!--Invalid ABN format that passes profile validation used as the fictitious ABN to avoid introducing ambiguity with real world organisations-->
                    <system
                        value="http://ns.electronichealth.net.au/id/abn-scoped/service-provider-individual/1.0/41824753000"/>
                    <value value="RBRLSNSW765301"/>
                    <assigner>
                        <display value="Randwick Laboratories Sydney"/>
                    </assigner>
                </identifier>
                <practitioner>
                    <reference value="urn:uuid:d68312c9-b122-4fe5-8e3c-f550bd989f4b"/>
                    <display value="Dr. Robert Brown"/>
                </practitioner> 
                <organization>
                    <reference value="urn:uuid:9aac0c75-2467-4245-8ea9-c25d96bbd3eb"/>
                    <display value="Randwick Laboratories Sydney"/>
                </organization>
                <code>
                    <coding>
                        <system value="http://snomed.info/sct"/>
                        <code value="40204001"/>
                        <display value="Haematologist"/>
                    </coding>
                    <text value="Haematologist"/>
                </code>   
            </PractitionerRole>
        </resource>
    </entry>
    <!--Practitioner referenced in PractitionerRole (9f8c3cdc-4889-4eee-8b5f-fd2c8ba716b7)-->
    <entry>
        <fullUrl value="urn:uuid:d68312c9-b122-4fe5-8e3c-f550bd989f4b"/>
        <resource>
            <Practitioner xmlns="http://hl7.org/fhir">
                <id value="d68312c9-b122-4fe5-8e3c-f550bd989f4b"/>
                <identifier>
                    <type>
                        <coding>
                            <system value="http://terminology.hl7.org/CodeSystem/v2-0203"/>
                            <code value="NPI"/>
                            <display value="National provider identifier"/>
                        </coding>
                        <text value="HPI-I"/>
                    </type>
                    <system value="http://ns.electronichealth.net.au/id/hi/hpii/1.0"/>
                    <value value="8003614900041243"/>
                </identifier>
                <name>
                    <use value="usual"/>
                    <family value="Brown"/>
                    <given value="Robert"/>
                    <prefix value="Dr."/>
                </name>
                <telecom>
                    <system value="phone"/>
                    <value value="0491 578 888"/>
                    <use value="mobile"/>
                </telecom>
                <address>
                    <use value="work"/>
                    <line value="1342 Sydney St"/>
                    <city value="Randwick"/>
                    <state value="NSW"/>
                    <postalCode value="2031"/>
                    <country value="AU"/>
                </address>
            </Practitioner>
        </resource>
    </entry>
    <!--Organization referenced in Composition.custodian; PractitionerRole (9f8c3cdc-4889-4eee-8b5f-fd2c8ba716b7)-->
    <entry>
        <fullUrl value="urn:uuid:9aac0c75-2467-4245-8ea9-c25d96bbd3eb"/>
        <resource>
            <Organization xmlns="http://hl7.org/fhir">
                <id value="9aac0c75-2467-4245-8ea9-c25d96bbd3eb"/>
                <identifier>
                    <type>
                        <text value="NATA Accreditation Number"/>
                    </type>
                    <system value="http://hl7.org.au/id/nata-accreditation"/> 
                    <!--In Australia NATA numbers are an
        incremental number that have been incremented to 5 digits, this example uses a fictional
        NATA number from 100,000 + to ensure no conflict with real world values--> 
                    <value value="100201"/>
                </identifier>
                <identifier>
                    <type>
                        <text value="ABN"/>
                    </type>
                    <system value="http://hl7.org.au/id/abn"/>
                    <!--Invalid ABN format that passes profile validation used as the fictitious ABN to avoid introducing ambiguity with real world organisations--> 
                    <value value="41824753000"/>
                </identifier>
                <type>
                    <coding>
                        <system value="http://www.abs.gov.au/ausstats/abs@.nsf/mf/1292.0"/>
                        <code value="8520"/>
                        <display value="Pathology and Diagnostic Imaging Services"/>
                    </coding>
                    <text value="Pathology Laboratory"/>
                </type>
                <name value="Randwick Laboratories Sydney"/>
                <telecom>
                    <system value="phone"/>
                    <value value="(02) 5550 8994"/>
                    <use value="work"/>
                </telecom>
                <address>
                    <line value="1342 Sydney St"/>
                    <city value="Randwick"/>
                    <state value="NSW"/>
                    <postalCode value="2031"/>
                    <country value="AU"/>
                </address>
            </Organization>
        </resource>
    </entry>
    <!--PractitionerRole referenced in ServiceRequest.requester-->
    <entry>
        <fullUrl value="urn:uuid:81d4d5f4-6dde-41f1-9973-89999a31c3f0"/>
        <resource>
            <PractitionerRole xmlns="http://hl7.org/fhir">
                <id value="81d4d5f4-6dde-41f1-9973-89999a31c3f0"/>  
                <identifier>
                    <type>
                        <coding>
                            <system value="http://terminology.hl7.org/CodeSystem/v2-0203"/>
                            <code value="EI"/>
                            <display value="Employee number"/>
                        </coding>
                        <text value="Employee Number"/>
                    </type>
                    <system value="http://bondigpmedicalcenter.example.com/providers" />
                    <value value="8223NSW" />
                    <assigner>
                        <display value="Bondi GP Medical Center NSW"/>
                    </assigner>
                </identifier>
                <practitioner>
                    <display value="Dr Sarah Bondiali"/>
                </practitioner> 
                <organization>
                    <display value="Bondi GP Medical Center NSW"/>
                </organization>
                <code>
                    <coding>
                        <system value="http://snomed.info/sct"/>
                        <code value="62247001"/>
                    </coding>
                    <text value="General Practitioner"/>
                </code>    
            </PractitionerRole>
        </resource>
    </entry>
</Bundle>
