<?xml version="1.0" encoding="UTF-8"?>
<Bundle xmlns="http://hl7.org/fhir">
    <id value="b317aa04-131c-49d1-b9bc-48ff94876834"/>
    <meta>
        <lastUpdated value="2020-05-15T10:12:22+10:00"/>
    </meta>
    <identifier>
        <system value="urn:ietf:rfc:3986"/>
        <value value="urn:uuid:a6435dda-3ff1-4b74-bb22-2cf8625ee410"/>
    </identifier>
    <type value="document"/>
    <timestamp value="2020-05-12T09:05:00+11:00"/>
    <entry>
        <fullUrl value="urn:uuid:c1260f19-f229-4cab-887d-c59d885541c2"/>
        <resource>
            <Composition xmlns="http://hl7.org/fhir">
                <id value="c1260f19-f229-4cab-887d-c59d885541c2"/>
                <meta>
                    <lastUpdated value="2020-05-12T09:05:00+11:00"/>
                    <profile
                        value="http://ns.electronichealth.net.au/ci/fhir/4.0/StructureDefinition/composition-pathreport-1"
                    />
                </meta>
                <language value="en-AU"/>
                <text>
                    <status value="generated"/>
                    <div xmlns="http://www.w3.org/1999/xhtml" lang="en-AU">
                        <table style="border-collapse:collapse;">
                            <tbody>
                                <tr
                                    style="border-collapse:collapse;border-spacing:0;width:100%;background-color:#000000">
                                    <td colspan="4"
                                        style="padding-top: 20px;
                                       vertical-align: top;
                                       text-align: center;
                                       margin 0px;
                                       font-size: 18px;
                                       font-family: Helvetica;
                                       color: #FFFFFF;
                                       font-weight: bold;
                                       word-wrap: break-word;"
                                        >2019-Novel Coronavirus PCR Microbiology</td>
                                </tr>
                                <tr
                                    style="border-collapse:collapse;border-spacing:0;width:100%;background-color:#000000">
                                    <td colspan="4"
                                        style="padding-top: 10px;
                                       vertical-align: top;
                                       text-align: center;
                                       margin 0px;
                                       font-size: 15px;
                                       font-family: Helvetica;
                                       color: #FFFFFF;
                                       font-weight: bold;
                                       word-wrap: break-word;"
                                        >12 May 2020 14:12</td>
                                </tr>
                                <tr
                                    style="border-collapse:collapse;border-spacing:0;width:100%;background-color:#000000">
                                    <td colspan="4">
                                        <table>
                                            <tbody>
                                                <tr>
                                                  <td
                                                  style="display: inline; 
                                                       margin-right: 20px; 
                                                       font-size: 13px;
                                                       color: #FFFFFF;"
                                                  >Bert <span class="bold">GAINEY</span></td>
                                                  <td
                                                  style="display: inline;
                                                       font-size: 13px;
                                                       color: #FFFFFF;"
                                                  >DoB</td>
                                                  <td
                                                  style="margin-left: 0px;
                                                       display: inline;
                                                       font-size: 13px;
                                                       margin-right: 30px;
                                                       color: #FFFFFF;"
                                                  >24 Sep 1971</td>
                                                  <td
                                                  style="display: inline;
                                                       font-size: 13px;
                                                       color: #FFFFFF;"
                                                  >GENDER</td>
                                                  <td
                                                  style="margin-left: 0px;
                                                       display: inline;
                                                       font-size: 13px;
                                                       margin-right: 30px;
                                                       color: #FFFFFF;"
                                                  >Male</td>
                                                  <td
                                                  style="display: inline;
                                                       font-size: 13px;
                                                       color: #FFFFFF;"
                                                  >Medicare Number</td>
                                                  <td
                                                  style="margin-left: 0px;
                                                       display: inline;
                                                       font-size: 13px;
                                                       margin-right: 30px;
                                                       color: #FFFFFF;"
                                                  >29533070311</td>
                                                  <td
                                                  style="display: inline;
                                                       font-size: 13px;
                                                       color: #FFFFFF;"
                                                  >Address</td>
                                                  <td
                                                  style="margin-left: 0px;
                                                       display: inline;
                                                       font-size: 13px;
                                                       margin-right: 30px;
                                                       color: #FFFFFF;"
                                                  >197 Woodstock Pl, CANBERRA AIRPORT, ACT,
                                                  2609</td>
                                                </tr>
                                            </tbody>
                                        </table>
                                    </td>
                                </tr>
                                <tr style="background-color:#eee">
                                    <td colspan="2"
                                        style="padding:10px;font-size:120%;font-weight:bold"
                                        >Author</td>
                                    <td colspan="2"
                                        style="padding:10px;font-size:120%;font-weight:bold"/>
                                </tr>
                                <tr>
                                    <td style="font-weight:bold; padding:30px 3px 3px 40px">Document
                                        author:</td>
                                    <td style="white-space:nowrap;padding:30px 3px 3px">Dr. Elenore Sallow (Pathologist)
                                        (HPI-I: 8003619900041630)</td>
                                    <td style="font-weight:bold; padding:30px 3px 3px 40px"/>
                                    <td/>
                                </tr>
                                <tr>
                                    <td style="font-weight:bold; padding:3px 3px 3px 40px"/>
                                    <td>75 Hampden St, DOOMBEN, QLD, 4007</td>
                                    <td style="font-weight:bold; padding:3px 3px 3px 40px"/>
                                    <td/>
                                </tr>
                                <tr>
                                    <td style="font-weight:bold; padding:3px 3px 3px 40px"/>
                                    <td>(07) 5550 1234</td>
                                    <td style="font-weight:bold; padding:3px 3px 3px 40px"/>
                                    <td/>
                                </tr>
                                <tr>
                                    <td style="font-weight:bold; padding:3px 3px 3px 40px"/>
                                    <td>Doomben Pathology QLD (HPI-O: 8003623233366565) (NATA:
                                        100101)</td>
                                    <td style="font-weight:bold; padding:3px 3px 3px 40px"/>
                                    <td/>
                                </tr>
                                <tr>
                                    <td style="font-weight:bold; padding:3px 3px 3px 40px"/>
                                    <td>75 Hampden St, DOOMBEN, QLD, 4007</td>
                                    <td style="font-weight:bold; padding:3px 3px 3px 40px"/>
                                    <td/>
                                </tr>
                                <tr>
                                    <td style="font-weight:bold; padding:3px 3px 30px 40px"/>
                                    <td>(07) 5550 3427 info@doombenpathlabs.example.com</td>
                                    <td style="font-weight:bold; padding:3px 3px 3p0x 40px"/>
                                    <td/>
                                </tr>
                                <tr style="background-color:#eee;">
                                    <td colspan="4"
                                        style="font-weight:bold; padding:10px 10px 10px 20px; font-size:120%"
                                        >Pathology</td>
                                </tr>

                                <tr style="padding:10px; font-weight:bold">
                                    <td
                                        style="font-weight:bold; padding:30px 3px 3px 40px;white-space:nowrap"
                                        >Requested by:</td>
                                    <td style="padding:30px 3px 3px">Dr Greg Algregster (General Practitioner) (Employee ID:
                                        AMC-GA-001)</td>
                                    <td
                                        style="font-weight:bold; padding:30px 3px 3px 40px;white-space:nowrap"
                                        >Authored by:</td>
                                    <td style="padding:30px 3px 3px">Dr. Elenore Sallow (Pathologist) (HPI-I:
                                        8003619900041630)</td>
                                </tr>
                                <tr>
                                    <td style="font-weight:bold; padding:3px 3px 3px 40px"/>
                                    <td>Algregster Medical Center QLD</td>
                                    <td style="font-weight:bold; padding:3px 3px 3px 40px"/>
                                    <td>75 Hampden St, DOOMBEN, QLD, 4007</td>
                                </tr>
                                <tr>
                                    <td style="font-weight:bold; padding:3px 3px 3px 40px"/>
                                    <td/>
                                    <td style="font-weight:bold; padding:3px 3px 3px 40px"/>
                                    <td>(07) 5550 1234</td>
                                </tr>
                                <tr>
                                    <td/>
                                    <td/>
                                    <td style="font-weight:bold; padding:3px 3px 3px 40px"/>
                                    <td>Doomben Pathology QLD (HPI-O: 8003623233366565) (NATA:
                                        100101)</td>
                                </tr>
                                <tr>
                                    <td/>
                                    <td/>
                                    <td style="font-weight:bold; padding:3px 3px 3px 40px"/>
                                    <td>75 Hampden St, DOOMBEN, QLD, 4007</td>
                                </tr>
                                <tr>
                                    <td/>
                                    <td/>
                                    <td style="padding:3px 3px 30px"/>
                                    <td style="padding:3px 3px 30px">(07) 5550 3427
                                        info@doombenpathlabs.example.com</td>
                                </tr>
                                <tr>
                                    <td
                                        style="font-weight:bold; padding:30px 3px 3px 40px;white-space:nowrap"
                                        >Request ID:</td>
                                    <td style="padding:30px 3px 3px">589RQ-212O</td>
                                    <td style="font-weight:bold; padding:30px 3px 3px 40px">Report
                                        Date/Time:</td>
                                    <td style="padding:30px 3px 3px">12 May 2020 09:01</td>
                                </tr>
                                <tr>
                                    <td
                                        style="font-weight:bold; padding:3px 3px 3px 40px;white-space:nowrap"
                                        >Request Date/Time:</td>
                                    <td>11 May 2020 9:15</td>
                                    <td
                                        style="font-weight:bold; padding:3px 3px 3px 40px;white-space:nowrap"
                                        >Report ID:</td>
                                    <td>DOO8Q1057</td>
                                </tr>
                                <tr>
                                    <td
                                        style="font-weight:bold; padding:3px 3px 3px 40px;white-space:nowrap"
                                        >Requested Test:</td>
                                    <td>2019-Novel Coronavirus PCR</td>
                                    <td
                                        style="font-weight:bold; padding:3px 3px 3px 40px;white-space:nowrap"
                                        >Report Status:</td>
                                    <td>Final</td>
                                </tr>
                                <tr>
                                    <td style="font-weight:bold; padding:3px 3px 30px 40px"/>
                                    <td/>
                                    <td
                                        style="font-weight:bold; padding:3px 3px 30px 40px;white-space:nowrap"
                                        >Diagnostic Service(s):</td>
                                    <td>Microbiology</td>
                                </tr>


                                <tr style="background-color:#eee; padding:10px">
                                    <td colspan="4"
                                        style="font-weight:bold; padding:10px 10px 10px 20px;font-size:120%"
                                        >Test Result</td>
                                </tr>
                                <tr>
                                    <td style="font-weight:bold; padding:30px 3px 3px 40px"
                                        >Specimen:</td>
                                    <td style="padding:30px 3px 3px">Swab</td>
                                    <td style="font-weight:bold; padding:30px 3px 3px 40px">Test
                                        Name:</td>
                                    <td style="padding:30px 3px 3px">2019-Novel Coronavirus PCR</td>
                                </tr>
                                <tr>
                                    <td
                                        style="font-weight:bold; padding:3px 3px 3px 40px;white-space:nowrap"
                                        >Specimen site:</td>
                                    <td>Nasopharyngeal</td>
                                    <td style="font-weight:bold; padding:3px 3px 3px 40px"
                                        >Result:</td>
                                    <td>Not detected</td>
                                </tr>
                                <tr>
                                    <td
                                        style="font-weight:bold; padding:3px 3px 3px 40px;white-space:nowrap"
                                        >Collected Date/Time:</td>
                                    <td>11 May 2020 12:20</td>
                                    <td style="font-weight:bold; padding:3px 3px 3px 40px"
                                        >Comment:</td>
                                    <td>This test is currently under evaluation and has not been
                                        fully validated. Failure to detect organism-specific nucleic
                                        acids does not exclude the presence of disease due to this
                                        agent. </td>
                                </tr>
                            </tbody>
                        </table>
                    </div>
                </text>
                <identifier>
                    <type>
                        <coding>
                            <system value="http://terminology.hl7.org/CodeSystem/v2-0203"/>
                            <code value="FILL"/>
                            <display value="Filler Identifier"/>
                        </coding>
                    </type>
                    <system
                        value="http://ns.electronichealth.net.au/id/hpio-scoped/report/1.0/8003623233366565"/>
                    <value value="DOO8Q1057"/>
                </identifier>
                <status value="final"/>
                <type>
                    <coding>
                        <system
                            value="https://healthterminologies.gov.au/fhir/CodeSystem/nctis-data-components-1"/>
                        <code value="100.32001"/>
                    </coding>
                </type>
                <subject>
                    <reference value="urn:uuid:304dd21e-5c79-4a04-88c8-03face00eb78"/>
                </subject>
                <date value="2020-05-12T09:02:00+11:00"/>
                <author>
                    <reference value="urn:uuid:0a0ff7e0-b328-4f5e-aed8-1adb8d1a30fc"/>
                </author>
                <title value="2019-Novel Coronavirus PCR Microbiology"/>
                <attester>
                    <mode value="legal"/>
                    <time value="2020-05-12T09:02:00+11:00"/>
                    <party>
                        <reference value="urn:uuid:0a0ff7e0-b328-4f5e-aed8-1adb8d1a30fc"/>
                    </party>
                </attester>
                <custodian>
                    <reference value="urn:uuid:e0c5fa86-2184-4a5b-8c47-041422643440"/>
                </custodian>
                <section>
                    <title value="Pathology"/>
                    <code>
                        <coding>
                            <system value="http://loinc.org"/>
                            <code value="11526-1"/>
                        </coding>
                    </code>
                    <text>
                        <status value="generated"/>
                        <div xmlns="http://www.w3.org/1999/xhtml" lang="en-AU">
                            <table>
                                <tbody>
                                    <tr>
                                        <td colspan="4">Pathology</td>
                                    </tr>
                                    <tr>
                                        <td>Requested by:</td>
                                        <td>Dr Greg Algregster (General Practitioner) (Employee ID:
                                            AMC-GA-001)</td>
                                        <td>Authored by:</td>
                                        <td>Dr. Elenore Sallow (Pathologist) (HPI-I:
                                            8003619900041630)</td>
                                    </tr>
                                    <tr>
                                        <td/>
                                        <td>Algregster Medical Center QLD</td>
                                        <td/>
                                        <td>75 Hampden St, DOOMBEN, QLD, 4007</td>
                                    </tr>
                                    <tr>
                                        <td/>
                                        <td/>
                                        <td/>
                                        <td>(07) 5550 1234</td>
                                    </tr>
                                    <tr>
                                        <td/>
                                        <td/>
                                        <td/>
                                        <td>Doomben Pathology QLD (HPI-O: 8003623233366565) (NATA:
                                            100101)</td>
                                    </tr>
                                    <tr>
                                        <td/>
                                        <td/>
                                        <td/>
                                        <td>75 Hampden St, DOOMBEN, QLD, 4007</td>
                                    </tr>
                                    <tr>
                                        <td/>
                                        <td/>
                                        <td/>
                                        <td>(07) 5550 3427 info@doombenpathlabs.example.com</td>
                                    </tr>
                                    <tr>
                                        <td>Request ID:</td>
                                        <td>589RQ-212O</td>
                                        <td>Report Date/Time:</td>
                                        <td>12 May 2020 09:01</td>
                                    </tr>
                                    <tr>
                                        <td>Request Date/Time:</td>
                                        <td>11 May 2020 9:15</td>
                                        <td>Report ID:</td>
                                        <td>DOO8Q1057</td>
                                    </tr>
                                    <tr>
                                        <td>Requested Test</td>
                                        <td>2019-Novel Coronavirus PCR</td>
                                        <td>Report Status:</td>
                                        <td>Final</td>
                                    </tr>
                                    <tr>
                                        <td/>
                                        <td/>
                                        <td>Diagnostic Service(s):</td>
                                        <td>Microbiology</td>
                                    </tr>
                                    <tr>
                                        <td colspan="4">Test Result</td>
                                    </tr>
                                    <tr>
                                        <td>Specimen:</td>
                                        <td>Swab</td>
                                        <td>Test Name:</td>
                                        <td>2019-Novel Coronavirus PCR</td>
                                    </tr>
                                    <tr>
                                        <td>Specimen site:</td>
                                        <td>Nasopharyngeal</td>
                                        <td>Result:</td>
                                        <td>Not detected</td>
                                    </tr>
                                    <tr>
                                        <td>Collected Date/Time:</td>
                                        <td>11 May 2020 12:20</td>
                                        <td>Comment:</td>
                                        <td>This test is currently under evaluation and has not been
                                            fully validated. Failure to detect organism-specific
                                            nucleic acids does not exclude the presence of disease
                                            due to this agent.</td>
                                    </tr>
                                </tbody>
                            </table>
                        </div>
                    </text>
                    <entry>
                        <reference value="urn:uuid:c879220e-b99d-4ac1-9307-8b0036029641"/>
                    </entry>
                </section>
            </Composition>
        </resource>
    </entry>
    <entry>
        <fullUrl value="urn:uuid:304dd21e-5c79-4a04-88c8-03face00eb78"/>
        <resource>
            <Patient>
                <id value="304dd21e-5c79-4a04-88c8-03face00eb78"/>
                <identifier>
                    <type>
                        <coding>
                            <system value="http://terminology.hl7.org/CodeSystem/v2-0203"/>
                            <code value="MC"/>
                            <userSelected value="false"/>
                        </coding>
                    </type>
                    <system value="http://ns.electronichealth.net.au/id/medicare-number"/>
                    <value value="29533070311"/>
                </identifier>
                <name>
                    <use value="usual"/>
                    <text value="Bert Gainey"/>
                </name>
                <gender value="male"/>
                <birthDate value="1971-09-24"/>
                <address>
                    <use value="home"/>
                    <line value="197 Woodstock Pl"/>
                    <city value="CANBERRA AIRPORT"/>
                    <state value="ACT"/>
                    <postalCode value="2609"/>
                </address>
            </Patient>
        </resource>
    </entry>
    <entry>
        <fullUrl value="urn:uuid:0a0ff7e0-b328-4f5e-aed8-1adb8d1a30fc"/>
        <resource>
            <PractitionerRole>
                <id value="0a0ff7e0-b328-4f5e-aed8-1adb8d1a30fc"/>
                <identifier>
                    <type>
                        <coding>
                            <system value="http://terminology.hl7.org/CodeSystem/v2-0203"/>
                            <code value="NPI"/>
                            <display value="National provider identifier"/>
                        </coding>
                        <text value="HPI-I"/>
                    </type>
                    <system value="http://ns.electronichealth.net.au/id/hi/hpii/1.0"/>
                    <value value="8003619900041630"/>
                </identifier>
                <practitioner>
                    <reference value="Practitioner/839021c8-3d4a-4759-9d70-9d46eb9f5ff5"/>
                </practitioner>
                <organization>
                    <reference value="Organization/e0c5fa86-2184-4a5b-8c47-041422643440"/>
                </organization>
                <code>
                    <coding>
                        <system value="http://snomed.info/sct"/>
                        <code value="61207006"/>
                        <display value="Medical pathologist"/>
                    </coding>
                    <text value="Pathologist"/>
                </code>
            </PractitionerRole>
        </resource>
    </entry>
    <entry>
        <fullUrl value="urn:uuid:839021c8-3d4a-4759-9d70-9d46eb9f5ff5"/>
        <resource>
            <Practitioner>
                <id value="839021c8-3d4a-4759-9d70-9d46eb9f5ff5"/>
                <name>
                    <use value="usual"/>
                    <family value="Sallow"/>
                    <given value="Elenore"/>
                    <prefix value="Dr."/>
                </name>
                <telecom>
                    <system value="phone"/>
                    <value value="(07) 5550 1234"/>
                    <use value="work"/>
                </telecom>
                <address>
                    <use value="work"/>
                    <line value="75 Hampden St"/>
                    <city value="DOOMBEN"/>
                    <state value="QLD"/>
                    <postalCode value="4007"/>
                    <country value="AU"/>
                </address>
            </Practitioner>
        </resource>
    </entry>
    <entry>
        <fullUrl value="urn:uuid:e0c5fa86-2184-4a5b-8c47-041422643440"/>
        <resource>
            <Organization>
                <id value="e0c5fa86-2184-4a5b-8c47-041422643440"/>
                <identifier>
                    <type>
                        <coding>
                            <system value="http://terminology.hl7.org.au/CodeSystem/v2-0203"/>
                            <code value="NOI"/>
                        </coding>
                        <text value="HPI-O"/>
                    </type>
                    <system value="http://ns.electronichealth.net.au/id/hi/hpio/1.0"/>
                    <value value="8003623233366565"/>
                </identifier>
                <identifier>
                    <type>
                        <text value="NATA Accreditation Number"/>
                    </type>
                    <system value="http://hl7.org.au/id/nata-accreditation"/>
                    <!--In Australia NATA numbers are an
        incremental number that have been incremented to 5 digits, this example uses a fictional
        NATA number from 100,000 + to ensure no conflict with real world values-->
                    <value value="100101"/>
                </identifier>
                <type>
                    <coding>
                        <system value="http://www.abs.gov.au/ausstats/abs@.nsf/mf/1292.0"/>
                        <code value="8520"/>
                        <display value="Pathology and Diagnostic Imaging Services"/>
                    </coding>
                    <text value="Pathology Laboratory"/>
                </type>
                <name value="Doomben Pathology QLD"/>
                <telecom>
                    <system value="email"/>
                    <value value="info@doombenpathlabs.example.com"/>
                    <use value="work"/>
                </telecom>
                <telecom>
                    <system value="phone"/>
                    <value value="(07) 5550 3427"/>
                    <use value="work"/>
                </telecom>
                <address>
                    <use value="work"/>
                    <type value="physical"/>
                    <line value="75 Hampden St"/>
                    <city value="DOOMBEN"/>
                    <state value="QLD"/>
                    <postalCode value="4007"/>
                    <country value="AU"/>
                </address>
            </Organization>
        </resource>
    </entry>
    <entry>
        <fullUrl value="urn:uuid:c879220e-b99d-4ac1-9307-8b0036029641"/>
        <resource>
            <DiagnosticReport>
                <id value="c879220e-b99d-4ac1-9307-8b0036029641"/>
                <meta>
                    <profile
                        value="http://ns.electronichealth.net.au/ci/fhir/StructureDefinition/diagnosticreport-path-atomic-1"
                    />
                </meta>
                <language value="en-AU"/>
                <identifier>
                    <type>
                        <coding>
                            <system value="http://terminology.hl7.org/CodeSystem/v2-0203"/>
                            <code value="FILL"/>
                            <display value="Filler Identifier"/>
                        </coding>
                    </type>
                    <system
                        value="http://ns.electronichealth.net.au/id/hpio-scoped/report/1.0/8003623233366565"/>
                    <value value="DOO8Q1057"/>
                </identifier>
                <basedOn>
                    <reference value="urn:uuid:b03d838d-f483-4f92-bf6f-37b1b2d5bebc"/>
                </basedOn>
                <status value="final"/>
                <category>
                    <coding>
                        <system value="http://terminology.hl7.org/CodeSystem/v2-0074"/>
                        <code value="LAB"/>
                    </coding>
                </category>
                <category>
                    <coding>
                        <system value="http://terminology.hl7.org/CodeSystem/v2-0074"/>
                        <code value="MB"/>
                    </coding>
                </category>
                <code>
                    <coding>
                        <system value="http://snomed.info/sct"/>
                        <code value="1445431000168101"/>
                        <display value="COVID-19 nucleic acid assay"/>
                    </coding>
                    <text value="2019-Novel Coronavirus PCR"/>
                </code>
                <subject>
                    <reference value="urn:uuid:304dd21e-5c79-4a04-88c8-03face00eb78"/>
                </subject>
                <effectiveDateTime value="2020-05-11T12:20:00+11:00"/>
                <issued value="2020-05-12T09:01:00+11:00"/>
                <performer>
                    <reference value="urn:uuid:e0c5fa86-2184-4a5b-8c47-041422643440"/>
                </performer>
                <performer>
                    <reference value="urn:uuid:0a0ff7e0-b328-4f5e-aed8-1adb8d1a30fc"/>
                </performer>
                <result>
                    <reference value="urn:uuid:c074083a-b70a-4bbf-9f82-6ef1a56202d9"/>
                </result>
                <presentedForm>
                    <contentType value="application/pdf"/>
                    <language value="en-AU"/>
                    <data
                        value=""/>
                    <title value="2019-Novel Coronavirus PCR Microbiology"/>
                </presentedForm>
            </DiagnosticReport>
        </resource>
    </entry>
    <entry>
        <fullUrl value="urn:uuid:c074083a-b70a-4bbf-9f82-6ef1a56202d9"/>
        <resource>
            <Observation>
                <id value="c074083a-b70a-4bbf-9f82-6ef1a56202d9"/>
                <status value="final"/>
                <category>
                    <coding>
                        <system value="http://terminology.hl7.org/CodeSystem/observation-category"/>
                        <code value="laboratory"/>
                    </coding>
                </category>
                <category>
                    <coding>
                        <system value="http://terminology.hl7.org/CodeSystem/v2-0074"/>
                        <code value="MB"/>
                    </coding>
                </category>
                <code>
                    <coding>
                        <system value="http://snomed.info/sct"/>
                        <code value="1445431000168101"/>
                        <display value="COVID-19 nucleic acid assay"/>
                    </coding>
                    <text value="2019-Novel Coronavirus PCR"/>
                </code>
                <effectiveDateTime value="2020-05-11T12:20:00+11:00"/>
                <performer>
                    <reference value="urn:uuid:e0c5fa86-2184-4a5b-8c47-041422643440"/>
                </performer>
                <performer>
                    <reference value="urn:uuid:0a0ff7e0-b328-4f5e-aed8-1adb8d1a30fc"/>
                </performer>
                <hasMember>
                    <reference value="urn:uuid:59e2ba97-44b0-45db-8f61-0a1b0e198580"/>
                </hasMember>
            </Observation>
        </resource>
    </entry>
    <entry>
        <fullUrl value="urn:uuid:59e2ba97-44b0-45db-8f61-0a1b0e198580"/>
        <resource>
            <Observation>
                <id value="59e2ba97-44b0-45db-8f61-0a1b0e198580"/>
                <status value="final"/>
                <category>
                    <coding>
                        <system value="http://terminology.hl7.org/CodeSystem/observation-category"/>
                        <code value="laboratory"/>
                    </coding>
                </category>
                <category>
                    <coding>
                        <system value="http://terminology.hl7.org/CodeSystem/v2-0074"/>
                        <code value="MB"/>
                    </coding>
                </category>
                <code>
                    <coding>
                        <system value="http://loinc.org"/>
                        <code value="94759-8"/>
                        <display value="SARS-CoV-2 (COVID-19) RNA NAA+probe Ql (Nph)"/>
                    </coding>
                </code>
                <effectiveDateTime value="2020-05-11T12:20:00+11:00"/>
                <performer>
                    <reference value="urn:uuid:e0c5fa86-2184-4a5b-8c47-041422643440"/>
                </performer>
                <performer>
                    <reference value="urn:uuid:0a0ff7e0-b328-4f5e-aed8-1adb8d1a30fc"/>
                </performer>
                <valueCodeableConcept>
                    <coding>
                        <system value="http://snomed.info/sct"/>
                        <code value="260415000"/>
                        <display value="Not detected"/>
                    </coding>
                </valueCodeableConcept>
                <note>
                    <text
                        value="This test is currently under evaluation and has not been fully validated. Failure to detect organism-specific nucleic acids does not exclude the presence of disease due to this agent."
                    />
                </note>
                <specimen>
                    <reference value="urn:uuid:81a46e66-3d35-45d4-8f6c-8041d902160d"/>
                </specimen>
            </Observation>
        </resource>
    </entry>
    <entry>
        <fullUrl value="urn:uuid:81a46e66-3d35-45d4-8f6c-8041d902160d"/>
        <resource>
            <Specimen>
                <id value="81a46e66-3d35-45d4-8f6c-8041d902160d"/>
                <type>
                    <coding>
                        <system value="http://snomed.info/sct"/>
                        <code value="257261003"/>
                        <display value="Swab"/>
                    </coding>
                </type>
                <subject>
                    <reference value="urn:uuid:304dd21e-5c79-4a04-88c8-03face00eb78"/>
                </subject>
                <collection>
                    <collectedDateTime value="2020-05-11T12:20:00+11:00"/>
                    <bodySite>
                        <coding>
                            <system value="http://snomed.info/sct"/>
                            <code value="71836000"/>
                            <display value="Nasopharyngeal structure"/>
                        </coding>
                        <text value="Nasopharyngeal"/>
                    </bodySite>
                </collection>
            </Specimen>
        </resource>
    </entry>
    <entry>
        <fullUrl value="urn:uuid:b03d838d-f483-4f92-bf6f-37b1b2d5bebc"/>
        <resource>
            <ServiceRequest>
                <id value="b03d838d-f483-4f92-bf6f-37b1b2d5bebc"/>
                <identifier>
                    <type>
                        <coding>
                            <system value="http://terminology.hl7.org/CodeSystem/v2-0203"/>
                            <code value="PLAC"/>
                            <display value="Placer Identifier"/>
                        </coding>
                    </type>
                    <system value="http://bondigpmedicalcenter.example.com/orders"/>
                    <value value="589RQ-212O"/>
                </identifier>
                <status value="completed"/>
                <intent value="order"/>
                <category>
                    <coding>
                        <system value="http://snomed.info/sct"/>
                        <code value="108252007"/>
                        <display value="Laboratory procedure"/>
                    </coding>
                </category>
                <code>
                    <coding>
                        <system value="http://snomed.info/sct"/>
                        <code value="1445431000168101"/>
                        <display value="COVID-19 nucleic acid assay"/>
                    </coding>
                    <text value="2019-Novel Coronavirus PCR"/>
                </code>
                <subject>
                    <reference value="urn:uuid:304dd21e-5c79-4a04-88c8-03face00eb78"/>
                </subject>
                <authoredOn value="2020-05-11T09:15:00+11:00"/>
                <requester>
                    <reference value="urn:uuid:f1d5844f-dd39-457d-867b-f50a00f91731"/>
                </requester>
            </ServiceRequest>
        </resource>
    </entry>
    <entry>
        <fullUrl value="urn:uuid:f1d5844f-dd39-457d-867b-f50a00f91731"/>
        <resource>
            <PractitionerRole>
                <id value="f1d5844f-dd39-457d-867b-f50a00f91731"/>
                <identifier>
                    <type>
                        <coding>
                            <system value="http://terminology.hl7.org/CodeSystem/v2-0203"/>
                            <code value="EI"/>
                            <display value="Employee number"/>
                        </coding>
                        <text value="Employee Number"/>
                    </type>
                    <system
                        value="http://ns.electronichealth.net.au/id/hpio-scoped/service-provider-individual/1.0/8003621566699776"/>
                    <value value="AMC-GA-001"/>
                    <assigner>
                        <display value="Algregster Medical Center QLD"/>
                    </assigner>
                </identifier>
                <practitioner>
                    <display value="Dr Greg Algregster"/>
                </practitioner>
                <organization>
                    <display value="Algregster Medical Center QLD"/>
                </organization>
                <code>
                    <coding>
                        <system value="http://snomed.info/sct"/>
                        <code value="62247001"/>
                    </coding>
                    <text value="General Practitioner"/>
                </code>
            </PractitionerRole>
        </resource>
    </entry>

</Bundle>
