<?xml version="1.0" encoding="UTF-8"?>
<Bundle xmlns="http://hl7.org/fhir">
    <id value="goc-doc-01"/>
    <meta>
        <lastUpdated value="2019-11-03T12:35:00+10:00"/>
        <profile value="http://ns.electronichealth.net.au/ci/fhir/StructureDefinition/dh-bundle-document-1"/>
    </meta>
    <identifier>
        <system value="urn:ietf:rfc:3986"/>
        <value value="urn:uuid:13dcec10-3d1e-45ac-8452-6cd08009ec0c"/>
    </identifier>
    <type value="document"/>
    <timestamp value="2019-11-03T12:35:00+10:00"/>
    <!--    Composition    -->
    <entry>
        <fullUrl value="urn:uuid:2c1ab134-1b8d-409b-9658-055481d1aafd"/>
        <resource>
            <Composition xmlns="http://hl7.org/fhir">
                <id value="2c1ab134-1b8d-409b-9658-055481d1aafd"/>
                <meta>
                    <profile value="http://ns.electronichealth.net.au/ci/fhir/StructureDefinition/dh-composition-acp-1"/>
                </meta>
                <language value="en-AU"/>
                <identifier>
                    <system value="urn:ietf:rfc:3986"/>
                    <value value="urn:uuid:c11d66bb-f3db-4049-901e-ad3c04488a4b"/>
                </identifier>
                <status value="final"/>
                <type>
                    <coding>
                        <system value="https://healthterminologies.gov.au/fhir/CodeSystem/nctis-data-components-1"/>
                        <code value="100.32016"/>
                        <display value="Goals of Care Document"/>
                    </coding>
                    <text value="Goals of Care"/>
                </type>
                <category>
                    <coding>
                        <system value="https://healthterminologies.gov.au/fhir/CodeSystem/nctis-data-components-1"/>
                        <code value="100.16975"/>
                        <display value="Advance Care Information"/>
                    </coding>
                </category>
                <subject>
                    <reference value="urn:uuid:6f3fb520-5fc7-419d-9c3c-1d1b559d02ce"/>
                </subject>
                <date value="2019-11-03T12:35:00+10:00"/>
                <author>
                    <reference value="urn:uuid:f6851641-21f0-48cc-a0d8-2b849de8d73f"/>
                </author>
                <title value="Goals of Care"/>
                <attester>
                    <mode value="legal"/>
                    <time value="2019-11-03T12:35:00+10:00"/>
                    <party>
                        <reference value="urn:uuid:f6851641-21f0-48cc-a0d8-2b849de8d73f"/>
                    </party>
                </attester>
                <custodian>
                    <reference value="urn:uuid:2909006e-038b-4aa2-862c-a4086ded952a"/>
                </custodian>
                <section>
                    <title value="Goals of Care"/>
                    <code>
                        <coding>
                            <system value="https://healthterminologies.gov.au/fhir/CodeSystem/nctis-data-components-1"/>
                            <code value="100.16975"/>
                            <display value="Advance Care Information"/>
                        </coding>
                    </code>
                    <entry>
                        <reference value="urn:uuid:2fe9873a-0eea-415a-89ae-0b82ff2b3d0b"/>
                    </entry>
                </section>
            </Composition>
        </resource>
    </entry>
    <!--    Patient    -->
    <entry>
        <fullUrl value="urn:uuid:6f3fb520-5fc7-419d-9c3c-1d1b559d02ce"/>
        <resource>
            <Patient xmlns="http://hl7.org/fhir">
                <id value="6f3fb520-5fc7-419d-9c3c-1d1b559d02ce"/>
                <text>
                    <status value="generated"/>
                    <div xmlns="http://www.w3.org/1999/xhtml">
                        <p>
                            <h3>Derived Narrative with Details</h3>
                        </p>
                        <p>
                            <b>Mr Zhang Wei</b>
                        </p>
                        <p>
                            <b>IHI:</b> 8003608000228437   <b>Medicare Number:</b> 29533070311
                        </p>
                        <p>
                            <b>Date Of Birth:</b> 1969-05-03 
                        </p>
                        <p>
                            <b>Country of Birth:</b> China    <b>Year of Arrival:</b> 2017
                        </p>
                        <p>
                            <b>Indigenous Status:</b> Neither Aboriginal nor Torres Strait Islander origin
                        </p>
                        
                        <p>
                            <b>Interpreter Required?</b> Yes   <b>Preferred Language:</b> Cantonese (yue)
                        </p>
                    </div>
                </text>
                <extension url="http://hl7.org/fhir/StructureDefinition/patient-birthPlace">
                    <valueAddress>
                        <text value="China"/>
                        <country value="CHN"/>
                    </valueAddress>
                </extension>
                <extension url="http://hl7.org.au/fhir/StructureDefinition/indigenous-status">
                    <valueCoding>
                        <system
                            value="https://healthterminologies.gov.au/fhir/CodeSystem/australian-indigenous-status-1"/>
                        <code value="4"/>
                        <display value="Neither Aboriginal nor Torres Strait Islander origin"/>
                    </valueCoding>
                </extension>
                <extension url="http://hl7.org/fhir/StructureDefinition/patient-interpreterRequired">
                    <valueBoolean value="true"/>
                </extension>
                <extension url="http://hl7.org.au/fhir/StructureDefinition/date-of-arrival">
                    <valueDate value="2017"/> 
                </extension>
                <identifier>
                    <extension url="http://hl7.org.au/fhir/StructureDefinition/ihi-status">
                        <valueCoding>
                            <system value="https://healthterminologies.gov.au/fhir/CodeSystem/ihi-status-1"/>
                            <code value="active"/>
                        </valueCoding>
                    </extension>
                    <extension url="http://hl7.org.au/fhir/StructureDefinition/ihi-record-status">
                        <valueCoding>
                            <system
                                value="https://healthterminologies.gov.au/fhir/CodeSystem/ihi-record-status-1"/>
                            <code value="verified"/>
                            <display value="verified"/>
                        </valueCoding>
                    </extension>
                    <type>
                        <coding>
                            <system value="http://terminology.hl7.org/CodeSystem/v2-0203"/>
                            <code value="NI"/>
                        </coding>
                        <text value="IHI"/>
                    </type>
                    <system value="http://ns.electronichealth.net.au/id/hi/ihi/1.0"/>
                    <value value="8003608000228437"/>
                </identifier>
                <identifier>
                    <type>
                        <coding>
                            <system value="http://terminology.hl7.org/CodeSystem/v2-0203"/>
                            <code value="MC"/>
                        </coding>
                        <text value="Medicare Number"/>
                    </type>
                    <system value="http://ns.electronichealth.net.au/id/medicare-number"/>
                    <value value="29533070311"/>
                </identifier>
                <name>
                    <family value="Zhang"/>
                    <given value="Wei"/>
                    <prefix value="Mr"/>
                </name>
                <gender value="male"/>
                <birthDate value="1969-05-03">
                    <extension url="http://hl7.org.au/fhir/StructureDefinition/date-accuracy-indicator">
                        <valueCoding>
                            <system
                                value="https://healthterminologies.gov.au/fhir/CodeSystem/date-accuracy-indicator-1"/>
                            <code value="AAA"/>
                            <display value="Day, month and year are accurate"/>
                        </valueCoding>
                    </extension>
                </birthDate>
                <communication>
                    <language>
                        <coding>
                            <system value="urn:ietf:bcp:47"/>
                            <code value="yue"/>
                        </coding>
                        <text value="Cantonese"/>
                    </language>
                    <preferred value="true"/>
                </communication>
            </Patient>
        </resource>
    </entry>
    <!--    PractitionerRole    -->
    <entry>
        <fullUrl value="urn:uuid:f6851641-21f0-48cc-a0d8-2b849de8d73f"/>
        <resource>
            <PractitionerRole xmlns="http://hl7.org/fhir">
                <id value="f6851641-21f0-48cc-a0d8-2b849de8d73f"/>
                <identifier>
                    <type>
                        <coding>
                            <system value="http://terminology.hl7.org/CodeSystem/v2-0203"/>
                            <code value="EI"/>
                            <display value="Employee number"/>
                        </coding>
                        <text value="Employee Number"/>
                    </type>
                    <system value="http://ns.electronichealth.net.au/id/hpio-scoped/service-provider-individual/1.0/8003621566699776" />
                    <value value="AMC-GA-001" />
                    <assigner>
                        <display value="Algregster Medical Center QLD"/>
                    </assigner>
                </identifier>
                <identifier>
                    <type>
                        <coding>
                            <system value="http://terminology.hl7.org/CodeSystem/v2-0203"/>
                            <code value="NPI"/>
                            <display value="National provider identifier"/>
                        </coding>
                        <text value="HPI-I"/>
                    </type>
                    <system value="http://ns.electronichealth.net.au/id/hi/hpii/1.0"/>
                    <value value="8003614900041243"/>
                </identifier>
                <practitioner>
                    <reference value="urn:uuid:40a94071-8373-4d53-a788-63b79c75a3c1"/>
                </practitioner>
                <organization>
                    <reference value="urn:uuid:2909006e-038b-4aa2-862c-a4086ded952a"/>
                </organization>
                <code>
                    <coding>
                        <system value="http://snomed.info/sct"/>
                        <code value="62247001"/>
                    </coding>
                    <text value="General Practitioner"/>
                </code>
                <telecom>
                    <system value="phone"/>
                    <value value="0491579760"/>
                </telecom>
                <telecom>
                    <system value="email"/>
                    <value value="drgreg@algregstermedical.example.com"/>        
                </telecom>
            </PractitionerRole>
        </resource>
    </entry>
    <!--    Practitioner    -->
    <entry>
        <fullUrl value="urn:uuid:40a94071-8373-4d53-a788-63b79c75a3c1"/>
        <resource>
            <Practitioner xmlns="http://hl7.org/fhir">
                <id value="40a94071-8373-4d53-a788-63b79c75a3c1"/>
                <identifier>
                    <type>
                        <coding>
                            <system value="http://terminology.hl7.org/CodeSystem/v2-0203"/>
                            <code value="NPI"/>
                            <display value="National provider identifier"/>
                        </coding>
                        <text value="HPI-I"/>
                    </type>
                    <system value="http://ns.electronichealth.net.au/id/hi/hpii/1.0"/>
                    <value value="8003614900041243"/>
                </identifier>  
                <name>        
                    <family value="Algrester" />
                    <given value="Greg" />
                    <prefix value="Dr."/>
                </name>
                <telecom>
                    <system value="email"/>
                    <value value="drgreg@algregstermedical.example.com"/>
                </telecom>
            </Practitioner>
        </resource>
    </entry>
    <!--    Organization    -->
    <entry>
        <fullUrl value="urn:uuid:2909006e-038b-4aa2-862c-a4086ded952a"/>
        <resource>
            <Organization xmlns="http://hl7.org/fhir">
                <id value="2909006e-038b-4aa2-862c-a4086ded952a"/>
                <identifier>
                    <type>
                        <coding>
                            <system value="http://terminology.hl7.org.au/CodeSystem/v2-0203"/>
                            <code value="NOI"/>
                        </coding>
                        <text value="HPI-O"/>
                    </type>
                    <system value="http://ns.electronichealth.net.au/id/hi/hpio/1.0"/>
                    <value value="8003614900041243"/>
                </identifier>
                <type>
                    <coding>
                        <system value="http://snomed.info/sct"/>
                        <code value="288565001"/>
                        <display value="Medical centre"/>
                    </coding>
                    <text value="Medical Centre"/>
                </type>
                <name value="Algregster Medical Centre"/>
                <telecom>
                    <system value="email"/>
                    <value value="info@algregstermedical.example.com"/>
                    <use value="work"/>
                </telecom>
                <telecom>
                    <system value="phone"/>
                    <value value="(07) 5550 2427"/>
                    <use value="work"/>
                </telecom>
                <address>        
                    <line value="87 Western Esp"/>
                    <city value="Tindal RAAF"/>
                    <state value="QLD"/>
                    <postalCode value="4655"/>
                    <country value="AU"/>
                </address>
            </Organization>
        </resource>
    </entry>
    <!--    DocumentReference    -->
    <entry>
        <fullUrl value="urn:uuid:2fe9873a-0eea-415a-89ae-0b82ff2b3d0b"/>
        <resource>
            <DocumentReference xmlns="http://hl7.org/fhir">
                <id value="2fe9873a-0eea-415a-89ae-0b82ff2b3d0b"/>
                <masterIdentifier>
                    <system value="urn:ietf:rfc:3986" />
                    <value value="urn:uuid:738b6ba4-709a-4091-ad05-4790f39e17bc" />
                </masterIdentifier>
                <identifier>
                    <system value="urn:ietf:rfc:3986" />
                    <value value="urn:uuid:738b6ba4-709a-4091-ad05-4790f39e17bc" />
                </identifier>
                <status value="current"/>
                <docStatus value="final"/>
                <type>
                    <coding>
                        <system value="https://healthterminologies.gov.au/fhir/CodeSystem/nctis-data-components-1"/>
                        <code value="100.32016"/>
                        <display value="Goals of Care Document"/>
                    </coding>
                    <text value="Goals of Care"/>
                </type>
                <category>
                    <coding>
                        <system value="https://healthterminologies.gov.au/fhir/CodeSystem/nctis-data-components-1"/>
                        <code value="100.16975"/>
                        <display value="Advance Care Information"/>
                    </coding>
                </category>
                <subject>
                    <reference value="urn:uuid:6f3fb520-5fc7-419d-9c3c-1d1b559d02ce"/>
                </subject>
                <date value="2019-11-03T12:35:00+10:00"/>
                <author>
                    <reference value="urn:uuid:f6851641-21f0-48cc-a0d8-2b849de8d73f"/>
                </author>
                <authenticator>
                    <reference value="urn:uuid:f6851641-21f0-48cc-a0d8-2b849de8d73f"/>
                </authenticator>
                <custodian>
                    <reference value="urn:uuid:2909006e-038b-4aa2-862c-a4086ded952a"/>
                </custodian>
                <description value="Goals of Care"/>
                <content>
                    <attachment>
                        <contentType value="application/pdf" />
                        <url value="goc_attachment.pdf"/>
                        <hash value="IiZNlyLY4gyewfICeWhFe2NcDDw="/>
                    </attachment>
                </content>
            </DocumentReference>
        </resource>
    </entry>
</Bundle>
