<?xml version="1.0" encoding="UTF-8"?>
<Bundle xmlns="http://hl7.org/fhir">
    <id value="0e2357c2-1317-40db-857a-b7162ec3dda8"/>
    <meta>
        <lastUpdated value="2020-06-21T11:46:00+10:00"/>
    </meta>
    <type value="collection"/>
    <!--DiagnosticReport-->
    <entry>
        <fullUrl value="urn:uuid:b980048e-890c-4a4a-afbb-87742509dfb5"/>
        <resource>
            <DiagnosticReport>
                <id value="b980048e-890c-4a4a-afbb-87742509dfb5"/>
                <meta>
                    <profile
                        value="http://ns.electronichealth.net.au/ci/fhir/StructureDefinition/diagnosticreport-otherdiag-atomic-1"
                    />
                </meta>
                <language value="en-AU"/>
                <!--WORKAROUND: The contents of DiagnosticReport.text are a workaround to enable the tooling used to generate this implementation guide
                to generate a human friendly rendering instead of forcing the reader to refer to XML or JSON format to view the full example narrative.
                The contents below is not consitent with good or recommended practice. -->
                <text>
                    <status value="additional"/>
                    <div xmlns="http://www.w3.org/1999/xhtml" lang="en-AU">
                        <h1>NSW CARDIOVASCULAR GROUP</h1>
                        <h2>ECHOCARDIOGRAPHY REPORT</h2>
                        <p>Phone: 1300 975 708</p>
                        <hr style="background-color:#000000"/>
                        <table>
                            <tbody>
                                <tr>
                                    <td style="width:50%">
                                        <table>
                                            <tbody>
                                                <tr>
                                                  <td>Name</td>
                                                  <td>Mr Wei Zhang</td>
                                                </tr>
                                                <tr>
                                                  <td>Address</td>
                                                  <td>6 Macquarie Street, Sydney, NSW, 2000</td>
                                                </tr>
                                                <tr>
                                                  <td>DOB</td>
                                                  <td>03/05/1969</td>
                                                </tr>
                                                <tr>
                                                  <td>Gender</td>
                                                  <td>Male</td>
                                                </tr>
                                                <tr>
                                                  <td>Indigenous Status</td>
                                                  <td>Neither Aboriginal nor Torres Strait Islander
                                                  origin</td>
                                                </tr>
                                                <tr>
                                                  <td>
                                                  <p/>
                                                  </td>
                                                  <td>
                                                  <p/>
                                                  </td>
                                                </tr>
                                                <tr>
                                                  <td>
                                                  <p/>
                                                  </td>
                                                  <td>
                                                  <p/>
                                                  </td>
                                                </tr>
                                                <tr>
                                                  <td>Test</td>
                                                  <td>Echocardiography</td>
                                                </tr>
                                                <tr>
                                                  <td>Requested</td>
                                                  <td>05/01/2019 0:00</td>
                                                </tr>
                                                <tr>
                                                  <td>Collected</td>
                                                  <td>06/01/2019 09:45</td>
                                                </tr>
                                                <tr>
                                                  <td>Reported</td>
                                                  <td>06/01/2019 10:12</td>
                                                </tr>
                                                <tr>
                                                    <td>Images</td>
                                                    <td><a
                                                        href="https://www.health.nsw.example.org/nsw-hospital/wado-rs/studies/1.2.36.1.2001.1001.105.100007.30246.19789.3503430046"
                                                        >Link to imaging study</a></td>
                                                </tr>
                                            </tbody>
                                        </table>
                                    </td>
                                    <td style="width:50%">
                                        <table>
                                            <tbody>
                                                <tr>
                                                  <td>File ID</td>
                                                  <td>2338172</td>
                                                </tr>
                                                <tr>
                                                  <td>Medicare No.</td>
                                                  <td>29533070311</td>
                                                </tr>
                                                <tr>
                                                  <td>IHI</td>
                                                  <td>8003608000228437</td>
                                                </tr>
                                                <tr>
                                                  <td>Country of birth</td>
                                                  <td>China</td>
                                                </tr>
                                                <tr>
                                                  <td>Year of arrival</td>
                                                  <td>2017</td>
                                                </tr>
                                                <tr>
                                                  <td>Interpreter required?</td>
                                                  <td>Y (Cantonese)</td>
                                                </tr>
                                                <tr>
                                                  <td>
                                                  <p/>
                                                  </td>
                                                  <td>
                                                  <p/>
                                                  </td>
                                                </tr>
                                                <tr>
                                                  <td>Laboratory Enquiries #</td>
                                                  <td>3143079143</td>
                                                </tr>
                                                <tr>
                                                  <td>
                                                  <p/>
                                                  </td>
                                                  <td>
                                                  <p/>
                                                  </td>
                                                </tr>
                                                <tr>
                                                  <td>Requested by</td>
                                                  <td>Dr David George (Oncologist)</td>
                                                </tr>
                                                <tr>
                                                  <td>Reports to</td>
                                                  <td>
                                                  <p>Dr David George (Oncologist)</p>
                                                  <p>Dr Sarah Bondiali (General Practitioner)</p>
                                                  </td>
                                                </tr>
                                            </tbody>
                                        </table>
                                    </td>
                                </tr>
                            </tbody>
                        </table>
                        <hr style="background-color:#000000"/>
                        <hr style="background-color:#000000"/>
                        <table>
                            <tr>
                                <td style="width:10%">
                                    <h4>ID</h4>
                                </td>
                                <td style="width:20%">
                                    <h4>Observation</h4>
                                </td>
                                <td style="width:70%">
                                    <h4>Value</h4>
                                </td>
                            </tr>
                            <tr>
                                <td>3143079143</td>
                                <td>Echocardiography</td>
                                <td>
                                    <p>NSW CARDIOVASCULAR GROUP</p>
                                    <p>ECHOCARDIOGRAPHY REPORT</p>
                                    <p>Phone: 1300 975 708</p>
                                </td>
                            </tr>
                            <tr>
                                <td/>
                                <td/>
                                <td>
                                    <p><b>Patient Name:</b> Mr Zhang Wei</p>
                                    <p><b>Date of Birth:</b> 03/05/1969</p>
                                    <p><b>Ht/Wt/BSA:</b> 174 cm, 72 kg, 2.05 m2.</p>
                                </td>
                            </tr>
                            <tr>
                                <td/>
                                <td/>
                                <td>
                                    <p><b>Date of Study:</b> 06/01/2019</p>
                                    <p><b>Site:</b> NSW Hospital - Cardiology</p>
                                </td>
                            </tr>
                            <tr>
                                <td/>
                                <td/>
                                <td>
                                    <p><b>Indications:</b> Pre-chemotherapy.</p>
                                </td>
                            </tr>
                            <tr>
                                <td/>
                                <td/>
                                <td>
                                    <p><b>Sonographer:</b> Ms Linda Howard</p>
                                    <p><b>Referring physician:</b> Dr David George</p>
                                </td>
                            </tr>
                            <tr>
                                <td/>
                                <td/>
                                <td>
                                    <p/>
                                    <p/>
                                </td>
                            </tr>
                            <tr>
                                <td/>
                                <td/>
                                <td>
                                    <p>
                                        <b>Summary:</b>
                                    </p>
                                    <p>1. Normal left ventricular size. LV vol 119 ml.</p>
                                    <p>2. Normal overall left ventricular systolic function. EF = 61
                                        %.</p>
                                    <p>3. There were no resting regional wall motion abnormalities
                                        detected.</p>
                                    <p>4. Normal GLS (Global Longitudinal Strain) —21 %.</p>
                                    <p>5. Normal right ventricular size and systolic function.</p>
                                    <p>6. Mildly dilated Left atrium. 21 cm2.</p>
                                    <p>7. Mild dilatation of the aortic root (43mm).</p>
                                    <p>8. Mild aortic valve sclerosis without stenosis.</p>
                                    <p>9. Trivial (0—1/4) mitral valve regurgitation.</p>
                                    <p>10. Trivial (0—1/4) tricuspid regurgitation.</p>
                                    <p>11.Normal pulmonary artery systolic pressure. RVSP = 23
                                        mmHg.</p>
                                    <p>12. The interatrial septum appears intact.</p>
                                    <p>13. Normal pericardium.</p>
                                    <p>14. Patient was in sinus bradycardia at a rate of 54 bpm.</p>
                                </td>
                            </tr>
                            <tr>
                                <td/>
                                <td/>
                                <td>
                                    <p style="font-weight: bold;">CARDIOLOGISTS INTERPRETATION:</p>
                                    <p>Patient was in sinus bradycardia at a rate of 54 bpm.</p>
                                </td>
                            </tr>
                            <tr>
                                <td/>
                                <td/>
                                <td>
                                    <p><b>Left Ventricle:</b> The left ventricular internal cavity
                                        size was normal. LV vol 119 ml. Overall LV systolic function
                                        was normal. EF = 61 % . No evidence of left ventricular
                                        hypertrophy. There were no resting regional wall motion
                                        abnormalities detected. Indeterminant LV filling pressure
                                        based E/e' ratio = 8 %. Normal GLS (Global Longitudinal
                                        Strain) = —21 % Philips Epiq 5c.</p>
                                </td>
                            </tr>
                            <tr>
                                <td/>
                                <td/>
                                <td>
                                    <p><b>Right Ventricle:</b> Normal right ventricular size, wall
                                        thickness, and systolic function. RV S' 11 cm/s.</p>
                                </td>
                            </tr>
                            <tr>
                                <td/>
                                <td/>
                                <td>
                                    <p><b>Left Atrium:</b> The left atrium was mildly dilated. 21
                                        cm2.</p>
                                </td>
                            </tr>
                            <tr>
                                <td/>
                                <td/>
                                <td>
                                    <p><b>Right Atrium:</b> The right atrium was at the upper limits
                                        of normal dimension. 20 cm2.</p>
                                </td>
                            </tr>
                            <tr>
                                <td/>
                                <td/>
                                <td>
                                    <p><b>Pericardium:</b> The pericardium appears normal.</p>
                                </td>
                            </tr>
                            <tr>
                                <td/>
                                <td/>
                                <td>
                                    <p><b>Aortic Valve:</b> The aortic valve was tricuspid. There
                                        was mild aortic valve sclerosis, with no evidence of aortic
                                        valve stenosis. PPG 6 mmHg MPG 4 mmHg, AVA 4. 6 cm2. No
                                        evidence of aortic valve regurgitation was seen. Resting
                                        LVOFT SV = 115 ml. Indexed = 56 ml/m2.</p>
                                </td>
                            </tr>
                            <tr>
                                <td/>
                                <td/>
                                <td>
                                    <p><b>Mitral Valve:</b> The mitral valve is sclerotic. Trivial
                                        (0—1/4) mitral valve regurgitation was seen.</p>
                                </td>
                            </tr>
                            <tr>
                                <td/>
                                <td/>
                                <td>
                                    <p><b>Tricuspid Valve:</b> The tricuspid valve was normal in
                                        structure. Trivial (O—1/4) tricuspid regurgitation was
                                        visualised. The tricuspid regurgitant velocity is 2.2 m/s,
                                        and with an assumed right atrial pressure of 3 mmHg, the
                                        estimated right ventricular systolic pressure normal at 23
                                        mmHg.</p>
                                </td>
                            </tr>
                            <tr>
                                <td/>
                                <td/>
                                <td>
                                    <p><b>Pulmonic Valve:</b> Structurally normal pulmonic valve,
                                        with normal leaflet excursion.</p>
                                </td>
                            </tr>
                            <tr>
                                <td/>
                                <td/>
                                <td>
                                    <p><b>Aorta:</b> There is mild dilatation of the aortic root.
                                        The trans sinus diameter measures at 4.3 cm. The ascending
                                        aorta measures at 3.6 cm.</p>
                                </td>
                            </tr>
                            <tr>
                                <td/>
                                <td/>
                                <td>
                                    <p><b>Shunts:</b> The interatrial septum appears intact.</p>
                                </td>
                            </tr>
                            <tr>
                                <td/>
                                <td/>
                                <td>
                                    <p><b>Reported By:</b> Dr Fredrika Bremer (Cardiologist)</p>
                                    <p style="font-weight: bold;">This letter has been
                                        electronically approved.</p>
                                </td>
                            </tr>
                            <tr>
                                <td/>
                                <td/>
                                <td>
                                    <p/>
                                    <p/>
                                </td>
                            </tr>
                            <tr>
                                <td/>
                                <td/>
                                <td>
                                    <p style="font-weight: bold;">CALCULATIONS &amp; MEASUREMENTS -
                                        ECHO</p>
                                </td>
                            </tr>
                            <tr>
                                <td/>
                                <td/>
                                <td>
                                    <p style="font-weight: bold;">2D and M—MODE MEASUREMENTS (normal
                                        ranges within parentheses):</p>
                                    <p><b>Left ventricle 2D:</b> IVS d 0.7 cm. LVPW d 0.6 cm. LVID d
                                        6.2 cm. LVID s 4.0 cm. LVFS 35 %. LVEF 2D 64 % .</p>
                                    <p><b>Atrial Areas/Volume:</b> LA Area = 21 cm2. RA Area 20
                                        cm2.</p>
                                </td>
                            </tr>
                            <tr>
                                <td/>
                                <td/>
                                <td>
                                    <p style="font-weight: bold;">LV SYSTOLIC FUNCTION:</p>
                                    <p>LV vol 119 ml. LV vol (BSA/SEX) ULN 152 mls. LV EF = 61
                                        %.</p>
                                </td>
                            </tr>
                            <tr>
                                <td/>
                                <td/>
                                <td>
                                    <p style="font-weight: bold;">LV DIASTOLIC FUNCTION:</p>
                                    <p>MV Peak = 0.6 m/s, MV Peak A = 0.5 m/ s, Decel Time 240 msec,
                                        MV A dur = 121 msec.</p>
                                    <p>E' MV Ann = 7 cm/ s, E/e' ratio = 8, E/A Ratio = 1.2.</p>
                                    <p>RUPV A Vmax = 0.3 m/s, RUPV S Vmax = 0.5 m/s, RUPV D Vmax =
                                        0.4 m/s.</p>
                                </td>
                            </tr>
                            <tr>
                                <td/>
                                <td/>
                                <td>
                                    <p style="font-weight: bold;">SPECTRAL DOPPLER ANALYSIS (where
                                        applicable):</p>
                                    <p><b>Mitral Valve:</b> MV P1/2 Time = 69.6 msec. MV area, PHT
                                        3.2 cm2.</p>
                                    <p><b>Aortic Valve:</b> AoV Max Vel = 1.2 m/s, AoV Peak PG = 6
                                        mmHg, AoV Mean PG = 4 mmHg, LVOT Vmax = 1.1 m/s, LVOT VTI =
                                        0.217 m, LVOT Diam = 2.6 cm. AoV Area Vmax 4.8 cm2. AoV Area
                                        VTI 4.6 cm2. DPI = 0. 91.</p>
                                    <p><b>Tricuspid Valve and PA/RV Systolic Pressure:</b> TR Max
                                        Velocity = 2.2 m/s RA pressure = 3 mmHG RVSP/PASP = 23 mmHg.
                                        RV S' = 11 cm/s.</p>
                                    <p><b>Pulmonary Valve:</b> PV Max velocity 1.3 m/s, PV Max PG =
                                        7 mmHg.</p>
                                </td>
                            </tr>
                            <tr>
                                <td/>
                                <td/>
                                <td>
                                    <p/>
                                    <p/>
                                </td>
                            </tr>
                            <tr>
                                <td/>
                                <td/>
                                <td>
                                    <p>Mr Wei Zhang, DOB 03/05/1969, File ID 2338172</p>
                                    <p style="font-weight: bold;">06/01/2019 Final</p>
                                </td>
                            </tr>
                        </table>
                    </div>
                </text>
                <identifier>
                    <type>
                        <coding>
                            <system value="http://terminology.hl7.org/CodeSystem/v2-0203"/>
                            <code value="FILL"/>
                            <display value="Filler Identifier"/>
                        </coding>
                    </type>
                    <system
                        value="http://ns.electronichealth.net.au/id/hpio-scoped/report/1.0/8003623233366565"/>
                    <value value="3143079143"/>
                </identifier>
                <basedOn>
                    <reference value="urn:uuid:edbc04cd-3387-435c-bda7-6e1a837b2590"/>
                </basedOn>
                <status value="final"/>
                <category>
                    <coding>
                        <system value="http://terminology.hl7.org/CodeSystem/v2-0074"/>
                        <code value="CUS"/>
                        <display value="Cardiac Ultrasound"/>
                    </coding>
                </category>
                <code>
                    <coding>
                        <system value="http://snomed.info/sct"/>
                        <code value="40701008"/>
                        <display value="Echocardiography"/>
                    </coding>
                    <text value="Echocardiography"/>
                </code>
                <subject>
                    <reference value="urn:uuid:995138d0-b8bc-4bd9-b49d-d2d025d39ae7"/>
                </subject>
                <effectiveDateTime value="2019-01-06T09:45:00+10:00"/>
                <issued value="2019-01-06T10:12:00+10:00"/>
                <performer>
                    <reference value="urn:uuid:46d552b7-88a9-427b-9d62-8b0727de91f9"/>
                </performer>
                <performer>
                    <reference value="urn:uuid:04ac8978-bc60-4492-aa07-f62568ebe5c6"/>
                </performer>
                <result>
                    <reference value="urn:uuid:4be4f59c-5a98-4d13-aff8-360bb6359243"/>
                </result>
            </DiagnosticReport>
        </resource>
    </entry>
    <!-- Echocardiography Observation referenced in DiagnosticReport.result-->
    <entry>
        <fullUrl value="urn:uuid:4be4f59c-5a98-4d13-aff8-360bb6359243"/>
        <resource>
            <Observation>
                <id value="4be4f59c-5a98-4d13-aff8-360bb6359243"/>
                <partOf>
                    <reference value="urn:uuid:b7dec05f-e62f-47a8-880e-3f0189004444"/>
                </partOf>
                <identifier>
                    <type>
                        <coding>
                            <system value="http://terminology.hl7.org/CodeSystem/v2-0203"/>
                            <code value="FILL"/>
                            <display value="Filler Identifier"/>
                        </coding>
                    </type>
                    <system
                        value="http://ns.electronichealth.net.au/id/hpio-scoped/report/1.0/8003623233366565"/>
                    <value value="3143079143"/>
                </identifier>
                <status value="final"/>
                <category>
                    <coding>
                        <system value="http://terminology.hl7.org/CodeSystem/v2-0074"/>
                        <code value="CUS"/>
                        <display value="Cardiac Ultrasound"/>
                    </coding>
                </category>
                <code>
                    <coding>
                        <system value="http://snomed.info/sct"/>
                        <code value="40701008"/>
                        <display value="Echocardiography"/>
                    </coding>
                    <text value="Echocardiography"/>
                </code>
                <subject>
                    <reference value="urn:uuid:995138d0-b8bc-4bd9-b49d-d2d025d39ae7"/>
                </subject>
                <effectiveDateTime value="2019-01-06T09:45:00+10:00"/>
                <note>
                    <text value="Patient was in sinus bradycardia at a rate of 54 bpm."/>
                </note>
                <note>
                    <text
                        value="Left Ventricle: The left ventricular internal cavity size was normal. LV vol 119 ml. Overall LV systolic function was normal. EF = 61 % . No evidence of left ventricular hypertrophy. There were no resting regional wall motion abnormalities detected. Indeterminant LV filling pressure based E/e' ratio = 8 %. Normal GLS (Global Longitudinal Strain) = —21 % Philips Epiq 5c."
                    />
                </note>
                <note>
                    <text
                        value="Right Ventricle: Normal right ventricular size, wall thickness, and systolic function. RV S' 11 cm/s."
                    />
                </note>
                <note>
                    <text value="Left Atrium: The left atrium was mildly dilated. 21 cm2."/>
                </note>
                <note>
                    <text
                        value="Right Atrium: The right atrium was at the upper limits of normal dimension. 20 cm2."
                    />
                </note>
                <note>
                    <text value="Pericardium: The pericardium appears normal."/>
                </note>
                <note>
                    <text
                        value="Aortic Valve: The aortic valve was tricuspid. There was mild aortic valve sclerosis, with no evidence of aortic valve stenosis. PPG 6 mmHg MPG 4 mmHg, AVA 4.
                        6 cm2. No evidence of aortic valve regurgitation was seen. Resting LVOFT SV = 115 ml. Indexed = 56 ml/m2."
                    />
                </note>
                <note>
                    <text
                        value="Mitral Valve: The mitral valve is sclerotic. Trivial (0—1/4) mitral valve regurgitation was seen."
                    />
                </note>
                <note>
                    <text
                        value="Tricuspid Valve: The tricuspid valve was normal in structure. Trivial (O—1/4) tricuspid regurgitation was visualised. The tricuspid regurgitant velocity is 2.2 m/s, and with an assumed right atrial pressure of 3 mmHg, the estimated right ventricular systolic pressure normal at 23 mmHg."
                    />
                </note>
                <note>
                    <text
                        value="Pulmonic Valve: Structurally normal pulmonic valve, with normal leaflet excursion."
                    />
                </note>
                <note>
                    <text
                        value="Aorta: There is mild dilatation of the aortic root. The trans sinus diameter measures at 4.3 cm. The ascending aorta measures at 3.6 cm."
                    />
                </note>
                <note>
                    <text value="Shunts: The interatrial septum appears intact."/>
                </note>
                <bodySite>
                    <coding>
                        <system value="http://snomed.info/sct"/>
                        <code value="80891009"/>
                        <display value="Heart structure"/>
                    </coding>
                </bodySite>
                <method>
                    <coding>
                        <system value="http://snomed.info/sct"/>
                        <code value="278292003"/>
                        <display value="Ultrasound imaging"/>
                    </coding>
                </method>
                <hasMember> 
                    <reference value="urn:uuid:0b9176a0-eac3-4f4c-8544-a926584c4ac6"/> 
                </hasMember>
                <hasMember> 
                    <reference value="urn:uuid:b0ceccfa-dd98-4c8d-ab1c-71b79612a3a1"/> 
                </hasMember>
                <hasMember> 
                    <reference value="urn:uuid:3cb22391-6291-4099-ab73-8a60d2260d72"/> 
                </hasMember>
                <hasMember> 
                    <reference value="urn:uuid:4adf972f-e94c-43df-b26e-e6703565c5cf"/> 
                </hasMember>
                <hasMember> 
                    <reference value="urn:uuid:8aea2e5e-a5b9-4001-8bcf-85fef9765f44"/> 
                </hasMember>
                <hasMember> 
                    <reference value="urn:uuid:208e0294-3cfd-4b89-b219-34667455a125"/> 
                </hasMember>
                <hasMember> 
                    <reference value="urn:uuid:ce3a9a35-4467-4e0f-b4fb-9956df21f8c8"/> 
                </hasMember>
                <hasMember> 
                    <reference value="urn:uuid:870ec900-b154-4bbb-a59c-92a70a075f44"/> 
                </hasMember>
            </Observation>
        </resource>
    </entry>
    <entry>
        <fullUrl value="urn:uuid:0b9176a0-eac3-4f4c-8544-a926584c4ac6"/>
        <resource>
            <Observation xmlns="http://hl7.org/fhir">
                <id value="0b9176a0-eac3-4f4c-8544-a926584c4ac6"/>
                <meta>
                    <profile
                        value="http://ns.electronichealth.net.au/ci/fhir/StructureDefinition/observation-otherdiag-atomic-1"
                    />
                </meta>
                <status value="final"/>
                <category>
                    <coding>
                        <system value="http://terminology.hl7.org/CodeSystem/observation-category"/>
                        <code value="imaging"/>
                    </coding>
                </category>
                <category>
                    <coding>
                        <system value="http://terminology.hl7.org/CodeSystem/v2-0074"/>
                        <code value="CUS"/>
                        <display value="Cardiac Ultrasound"/>
                    </coding>
                </category>
                <code>
                    <coding>
                        <system value="http://snomed.info/sct"/>
                        <code value="364080001"/>
                        <display value="Feature of left ventricle"/>
                    </coding>
                    <text value="Left ventricle 2D"/>
                </code>
                <subject>
                    <reference value="urn:uuid:995138d0-b8bc-4bd9-b49d-d2d025d39ae7"/>
                </subject>
                <effectiveDateTime value="2019-01-06T09:45:00+10:00"/>
                <performer>
                    <reference value="urn:uuid:04ac8978-bc60-4492-aa07-f62568ebe5c6"/>
                </performer>
                <bodySite>
                    <coding>
                        <system value="http://snomed.info/sct"/>
                        <code value="87878005"/>
                        <display value="Left ventricular structure"/>
                    </coding>
                </bodySite>
                <method>
                    <coding>
                        <system value="http://snomed.info/sct"/>
                        <code value="278292003"/>
                        <display value="Ultrasound imaging"/>
                    </coding>
                    <coding>
                        <system value="http://snomed.info/sct"/>
                        <code value="399064001"/>
                        <display value="2D mode ultrasound"/>
                    </coding>
                </method>
                <hasMember> 
                    <reference value="urn:uuid:bcb8d97a-463c-489f-8874-e88878f09ce2"/> 
                </hasMember>
                <hasMember> 
                    <reference value="urn:uuid:03868c1b-b633-48c9-965c-db5b2948e425"/> 
                </hasMember>
                <hasMember> 
                    <reference value="urn:uuid:4d63b08b-ad30-45aa-8786-1b6f6687867c"/> 
                </hasMember>
                <hasMember> 
                    <reference value="urn:uuid:1089f285-ccb4-40b6-884e-73b2d690a406"/> 
                </hasMember>
                <hasMember> 
                    <reference value="urn:uuid:9de1ab7d-9ed5-4700-821c-94ad42ed58ea"/> 
                </hasMember>
                <hasMember> 
                    <reference value="urn:uuid:49de0f95-cb33-4048-a99e-b5abccb48d73"/> 
                </hasMember>
            </Observation>
        </resource>
    </entry>
    <entry>
        <fullUrl value="urn:uuid:9a57fac4-0096-4182-939d-691acddbfa1b"/>
        <resource>
            <Endpoint xmlns="http://hl7.org/fhir">
                <id value="9a57fac4-0096-4182-939d-691acddbfa1b"/>    
                <status value="active"/> 
                <connectionType> 
                    <system value="http://terminology.hl7.org/CodeSystem/endpoint-connection-type"/> 
                    <code value="dicom-wado-rs"/> 
                </connectionType> 
                <name value="NSW Hospital DICOM WADO-RS endpoint"/> 
                <payloadType> 
                    <text value="DICOM WADO-RS"/> 
                </payloadType> 
                <payloadMimeType value="application/dicom"/> 
                <address value="http://www.health.nsw.example.org/nsw-hospital/wado-rs"/> 
            </Endpoint>
        </resource>
    </entry>
    <entry>
        <fullUrl value="urn:uuid:b7dec05f-e62f-47a8-880e-3f0189004444"/>
        <resource>
            <ImagingStudy xmlns="http://hl7.org/fhir">
                <id value="b7dec05f-e62f-47a8-880e-3f0189004444"/>
                <identifier>
                    <system value="urn:dicom:uid"/>
                    <value value="urn:oid:1.2.36.1.2001.1001.105.100007.30246.19789.3503430046"/>
                </identifier>
                <status value="available"/>
                <modality>
                    <system value="http://dicom.nema.org/resources/ontology/DCM"/>
                    <code value="US"/>
                    <display value="Ultrasound"/>
                </modality>
                <subject>
                    <reference value="urn:uuid:995138d0-b8bc-4bd9-b49d-d2d025d39ae7"/>
                </subject>
                <started value="2019-01-06T09:45:00+10:00"/> 
                <basedOn>
                    <reference value="urn:uuid:edbc04cd-3387-435c-bda7-6e1a837b2590"/>
                </basedOn>
                <endpoint> 
                    <reference value="urn:uuid:9a57fac4-0096-4182-939d-691acddbfa1b"/> 
                </endpoint>
                <procedureCode>
                    <coding>
                        <system value="http://loinc.org"/>
                        <code value="42148-7"/>
                        <display value="US Heart"/>
                    </coding>
                    <coding>
                        <system value="http://www.radlex.org"/>
                        <code value="RPID5656"/>
                        <display value="US Heart"/>
                    </coding>
                    <coding>
                        <system value="http://snomed.info/sct"/>
                        <code value="40701008"/>
                        <display value="Echocardiography"/>
                    </coding>
                </procedureCode>
                <reasonCode>
                    <text value="Pre-chemotherapy"/>
                </reasonCode>
            </ImagingStudy>
        </resource>
    </entry>
    <entry>
        <fullUrl value="urn:uuid:b0ceccfa-dd98-4c8d-ab1c-71b79612a3a1"/>
        <resource>
            <Observation xmlns="http://hl7.org/fhir">
                <id value="b0ceccfa-dd98-4c8d-ab1c-71b79612a3a1"/>
                <meta>
                    <profile
                        value="http://ns.electronichealth.net.au/ci/fhir/StructureDefinition/observation-otherdiag-atomic-1"
                    />
                </meta>
                <status value="final"/>
                <category>
                    <coding>
                        <system value="http://terminology.hl7.org/CodeSystem/observation-category"/>
                        <code value="imaging"/>
                    </coding>
                </category>
                <category>
                    <coding>
                        <system value="http://terminology.hl7.org/CodeSystem/v2-0074"/>
                        <code value="CUS"/>
                        <display value="Cardiac Ultrasound"/>
                    </coding>
                </category>
                <code>
                    <text value="Atrial Areas/Volume"/>
                </code>
                <subject>
                    <reference value="urn:uuid:995138d0-b8bc-4bd9-b49d-d2d025d39ae7"/>
                </subject>
                <effectiveDateTime value="2019-01-06T09:45:00+10:00"/>
                <performer>
                    <reference value="urn:uuid:04ac8978-bc60-4492-aa07-f62568ebe5c6"/>
                </performer>
                <bodySite>
                    <coding>
                        <system value="http://snomed.info/sct"/>
                        <code value="59652004"/>
                        <display value="Atrial structure"/>
                    </coding>
                </bodySite>
                <method>
                    <coding>
                        <system value="http://snomed.info/sct"/>
                        <code value="278292003"/>
                        <display value="Ultrasound imaging"/>
                    </coding>
                    <coding>
                        <system value="http://snomed.info/sct"/>
                        <code value="399064001"/>
                        <display value="2D mode ultrasound"/>
                    </coding>
                </method>
                <hasMember> 
                    <reference value="urn:uuid:36814e69-db51-4030-b979-06df71af1ce5"/> 
                </hasMember>
                <hasMember> 
                    <reference value="urn:uuid:013ec8e1-a648-40c7-a8cc-38541d775038"/> 
                </hasMember>
            </Observation>
        </resource>
    </entry>
    <entry>
        <fullUrl value="urn:uuid:3cb22391-6291-4099-ab73-8a60d2260d72"/>
        <resource>
            <Observation xmlns="http://hl7.org/fhir">
                <id value="3cb22391-6291-4099-ab73-8a60d2260d72"/>
                <meta>
                    <profile
                        value="http://ns.electronichealth.net.au/ci/fhir/StructureDefinition/observation-otherdiag-atomic-1"
                    />
                </meta>
                <status value="final"/>
                <category>
                    <coding>
                        <system value="http://terminology.hl7.org/CodeSystem/observation-category"/>
                        <code value="imaging"/>
                    </coding>
                </category>
                <category>
                    <coding>
                        <system value="http://terminology.hl7.org/CodeSystem/v2-0074"/>
                        <code value="CUS"/>
                        <display value="Cardiac Ultrasound"/>
                    </coding>
                </category>
                <code>
                    <coding>
                        <system value="http://snomed.info/sct"/>
                        <code value="250907009"/>
                        <display value="Left ventricular function"/>
                    </coding>
                    <text value="LV SYSTOLIC FUNCTION"/>
                </code>
                <subject>
                    <reference value="urn:uuid:995138d0-b8bc-4bd9-b49d-d2d025d39ae7"/>
                </subject>
                <effectiveDateTime value="2019-01-06T09:45:00+10:00"/>
                <performer>
                    <reference value="urn:uuid:04ac8978-bc60-4492-aa07-f62568ebe5c6"/>
                </performer>
                <bodySite>
                    <coding>
                        <system value="http://snomed.info/sct"/>
                        <code value="87878005"/>
                        <display value="Left ventricular structure"/>
                    </coding>
                </bodySite>
                <method>
                    <coding>
                        <system value="http://snomed.info/sct"/>
                        <code value="278292003"/>
                        <display value="Ultrasound imaging"/>
                    </coding>
                </method>
                <hasMember> 
                    <reference value="urn:uuid:fffe8380-10c2-4574-be6c-e87b0161b32a"/> 
                </hasMember>
                <hasMember> 
                    <reference value="urn:uuid:1192d7cd-1f00-4192-ad41-6dd4f17a4dba"/> 
                </hasMember>
                <hasMember> 
                    <reference value="urn:uuid:849653d0-8ac9-45a4-8eaa-e3c1e2dbad32"/> 
                </hasMember>
            </Observation>
        </resource>
    </entry>
    <entry>
        <fullUrl value="urn:uuid:4adf972f-e94c-43df-b26e-e6703565c5cf"/>
        <resource>
            <Observation xmlns="http://hl7.org/fhir">
                <id value="4adf972f-e94c-43df-b26e-e6703565c5cf"/>
                <meta>
                    <profile
                        value="http://ns.electronichealth.net.au/ci/fhir/StructureDefinition/observation-otherdiag-atomic-1"
                    />
                </meta>
                <status value="final"/>
                <category>
                    <coding>
                        <system value="http://terminology.hl7.org/CodeSystem/observation-category"/>
                        <code value="imaging"/>
                    </coding>
                </category>
                <category>
                    <coding>
                        <system value="http://terminology.hl7.org/CodeSystem/v2-0074"/>
                        <code value="CUS"/>
                        <display value="Cardiac Ultrasound"/>
                    </coding>
                </category>
                <code>
                    <coding>
                        <system value="http://snomed.info/sct"/>
                        <code value="250907009"/>
                        <display value="Left ventricular function"/>
                    </coding>
                    <text value="LV DIASTOLIC FUNCTION"/>
                </code>
                <subject>
                    <reference value="urn:uuid:995138d0-b8bc-4bd9-b49d-d2d025d39ae7"/>
                </subject>
                <effectiveDateTime value="2019-01-06T09:45:00+10:00"/>
                <performer>
                    <reference value="urn:uuid:04ac8978-bc60-4492-aa07-f62568ebe5c6"/>
                </performer>
                <bodySite>
                    <coding>
                        <system value="http://snomed.info/sct"/>
                        <code value="87878005"/>
                        <display value="Left ventricular structure"/>
                    </coding>
                </bodySite>
                <method>
                    <coding>
                        <system value="http://snomed.info/sct"/>
                        <code value="278292003"/>
                        <display value="Ultrasound imaging"/>
                    </coding>
                </method>
                <hasMember> 
                    <reference value="urn:uuid:a3ac04cd-09ff-4437-b147-c7f26a0ca22f"/> 
                </hasMember>
                <hasMember> 
                    <reference value="urn:uuid:fd0589aa-06e4-43b4-b71e-c08078530c07"/> 
                </hasMember>
                <hasMember> 
                    <reference value="urn:uuid:eb117b41-0e4a-4c9f-a42b-de26edce5ab8"/> 
                </hasMember>
                <hasMember> 
                    <reference value="urn:uuid:99ac7a67-729d-455a-a2f0-3f8bc8d4675e"/> 
                </hasMember>
                <hasMember> 
                    <reference value="urn:uuid:d76f5b94-6524-4463-9a02-b110d246dfc6"/> 
                </hasMember>
                <hasMember> 
                    <reference value="urn:uuid:ee66f77d-f95b-4f76-b3bb-e95e01325ff2"/> 
                </hasMember>
                <hasMember> 
                    <reference value="urn:uuid:64583715-7ca6-48d6-a525-9a87527baa3e"/> 
                </hasMember>
                <hasMember> 
                    <reference value="urn:uuid:7fdb9338-e7fb-4c99-9b9e-a4b50a11a6fb"/> 
                </hasMember>
                <hasMember> 
                    <reference value="urn:uuid:1c388b20-852b-493f-ab0c-183b98b4d010"/> 
                </hasMember>
                <hasMember> 
                    <reference value="urn:uuid:77ae332c-d81b-4889-ab45-c5ea2a4ae4fd"/> 
                </hasMember>
            </Observation>
        </resource>
    </entry>
    <entry>
        <fullUrl value="urn:uuid:8aea2e5e-a5b9-4001-8bcf-85fef9765f44"/>
        <resource>
            <Observation xmlns="http://hl7.org/fhir">
                <id value="8aea2e5e-a5b9-4001-8bcf-85fef9765f44"/>
                <meta>
                    <profile
                        value="http://ns.electronichealth.net.au/ci/fhir/StructureDefinition/observation-otherdiag-atomic-1"
                    />
                </meta>
                <status value="final"/>
                <category>
                    <coding>
                        <system value="http://terminology.hl7.org/CodeSystem/observation-category"/>
                        <code value="imaging"/>
                    </coding>
                </category>
                <category>
                    <coding>
                        <system value="http://terminology.hl7.org/CodeSystem/v2-0074"/>
                        <code value="CUS"/>
                        <display value="Cardiac Ultrasound"/>
                    </coding>
                </category>
                <code>
                    <coding>
                        <system value="http://snomed.info/sct"/>
                        <code value="364083004"/>
                        <display value="Mitral valve feature"/>
                    </coding>
                    <text value="Mitral Valve"/>
                </code>
                <subject>
                    <reference value="urn:uuid:995138d0-b8bc-4bd9-b49d-d2d025d39ae7"/>
                </subject>
                <effectiveDateTime value="2019-01-06T09:45:00+10:00"/>
                <performer>
                    <reference value="urn:uuid:04ac8978-bc60-4492-aa07-f62568ebe5c6"/>
                </performer>
                <bodySite>
                    <coding>
                        <system value="http://snomed.info/sct"/>
                        <code value="91134007"/>
                        <display value="Mitral valve structure"/>
                    </coding>
                </bodySite>
                <method>
                    <coding>
                        <system value="http://snomed.info/sct"/>
                        <code value="278292003"/>
                        <display value="Ultrasound imaging"/>
                    </coding>
                </method>
                <hasMember> 
                    <reference value="urn:uuid:e651b98f-e714-4691-9361-5d9e1bf4f917"/> 
                </hasMember>
                <hasMember> 
                    <reference value="urn:uuid:abe854a0-814a-40aa-b3d8-870d18e7c7d8"/> 
                </hasMember>
            </Observation>
        </resource>
    </entry>
    <entry>
        <fullUrl value="urn:uuid:208e0294-3cfd-4b89-b219-34667455a125"/>
        <resource>
            <Observation xmlns="http://hl7.org/fhir">
                <id value="208e0294-3cfd-4b89-b219-34667455a125"/>
                <meta>
                    <profile
                        value="http://ns.electronichealth.net.au/ci/fhir/StructureDefinition/observation-otherdiag-atomic-1"
                    />
                </meta>
                <status value="final"/>
                <category>
                    <coding>
                        <system value="http://terminology.hl7.org/CodeSystem/observation-category"/>
                        <code value="imaging"/>
                    </coding>
                </category>
                <category>
                    <coding>
                        <system value="http://terminology.hl7.org/CodeSystem/v2-0074"/>
                        <code value="CUS"/>
                        <display value="Cardiac Ultrasound"/>
                    </coding>
                </category>
                <code>
                    <coding>
                        <system value="http://snomed.info/sct"/>
                        <code value="399359007"/>
                        <display value="Aortic valve feature"/>
                    </coding>
                    <text value="Aortic Valve"/>
                </code>
                <subject>
                    <reference value="urn:uuid:995138d0-b8bc-4bd9-b49d-d2d025d39ae7"/>
                </subject>
                <effectiveDateTime value="2019-01-06T09:45:00+10:00"/>
                <performer>
                    <reference value="urn:uuid:04ac8978-bc60-4492-aa07-f62568ebe5c6"/>
                </performer>
                <bodySite>
                    <coding>
                        <system value="http://snomed.info/sct"/>
                        <code value="34202007"/>
                        <display value="Aortic valve structure"/>
                    </coding>
                </bodySite>
                <method>
                    <coding>
                        <system value="http://snomed.info/sct"/>
                        <code value="278292003"/>
                        <display value="Ultrasound imaging"/>
                    </coding>
                </method>
                <hasMember> 
                    <reference value="urn:uuid:aov-maxvel"/> 
                </hasMember>
                <hasMember> 
                    <reference value="urn:uuid:710d443a-b9a9-43c5-8c44-c05c0486012d"/> 
                </hasMember>
                <hasMember> 
                    <reference value="urn:uuid:65a05be4-90e5-4340-9408-fba49b75cb0b"/> 
                </hasMember>
                <hasMember> 
                    <reference value="urn:uuid:d303f914-7f33-4293-b6d4-bb34e6752c0a"/> 
                </hasMember>
                <hasMember> 
                    <reference value="urn:uuid:3b1a574a-5f1c-42f2-abd2-7581fa11c2fa"/> 
                </hasMember>
                <hasMember> 
                    <reference value="urn:uuid:26555e55-3a9f-4bdb-b78a-96238ee803fc"/> 
                </hasMember>
                <hasMember> 
                    <reference value="urn:uuid:e43d37cb-1e12-4c82-a0ff-8d2d2b5de286"/> 
                </hasMember>
                <hasMember> 
                    <reference value="urn:uuid:c41cc054-6640-405c-bed8-42a6a1b08cf2"/> 
                </hasMember>
                <hasMember> 
                    <reference value="urn:uuid:54adaffd-2481-4a87-8ffb-cac6b2c62b95"/> 
                </hasMember>
            </Observation> 
        </resource>
    </entry>
    <entry>
        <fullUrl value="urn:uuid:ce3a9a35-4467-4e0f-b4fb-9956df21f8c8"/>
        <resource>
            <Observation xmlns="http://hl7.org/fhir">
                <id value="ce3a9a35-4467-4e0f-b4fb-9956df21f8c8"/>
                <meta>
                    <profile
                        value="http://ns.electronichealth.net.au/ci/fhir/StructureDefinition/observation-otherdiag-atomic-1"
                    />
                </meta>
                <status value="final"/>
                <category>
                    <coding>
                        <system value="http://terminology.hl7.org/CodeSystem/observation-category"/>
                        <code value="imaging"/>
                    </coding>
                </category>
                <category>
                    <coding>
                        <system value="http://terminology.hl7.org/CodeSystem/v2-0074"/>
                        <code value="CUS"/>
                        <display value="Cardiac Ultrasound"/>
                    </coding>
                </category>
                <code>
                    <text value="Tricuspid Valve and PA/RV Systolic Pressure"/>
                </code>
                <subject>
                    <reference value="urn:uuid:995138d0-b8bc-4bd9-b49d-d2d025d39ae7"/>
                </subject>
                <effectiveDateTime value="2019-01-06T09:45:00+10:00"/>
                <performer>
                    <reference value="urn:uuid:04ac8978-bc60-4492-aa07-f62568ebe5c6"/>
                </performer>
                <bodySite>
                    <coding>
                        <system value="http://snomed.info/sct"/>
                        <code value="80891009"/>
                        <display value="Heart structure"/>
                    </coding>
                </bodySite>
                <method>
                    <coding>
                        <system value="http://snomed.info/sct"/>
                        <code value="278292003"/>
                        <display value="Ultrasound imaging"/>
                    </coding>
                </method>
                <hasMember> 
                    <reference value="urn:uuid:e98ecec8-862d-4574-b22a-07827dde6444"/> 
                </hasMember>
                <hasMember> 
                    <reference value="urn:uuid:3c3bbc55-bcc4-4183-9db5-4be12b83439c"/> 
                </hasMember>
                <hasMember> 
                    <reference value="urn:uuid:8c7993d5-0eae-495c-bf01-320d496cc47a"/> 
                </hasMember>
                <hasMember> 
                    <reference value="urn:uuid:479157d9-d792-477d-9866-d37db7e78890"/> 
                </hasMember>
            </Observation>
        </resource>
    </entry>
    <entry>
        <fullUrl value="urn:uuid:870ec900-b154-4bbb-a59c-92a70a075f44"/>
        <resource>
            <Observation xmlns="http://hl7.org/fhir">
                <id value="870ec900-b154-4bbb-a59c-92a70a075f44"/>
                <meta>
                    <profile
                        value="http://ns.electronichealth.net.au/ci/fhir/StructureDefinition/observation-otherdiag-atomic-1"
                    />
                </meta>
                <status value="final"/>
                <category>
                    <coding>
                        <system value="http://terminology.hl7.org/CodeSystem/observation-category"/>
                        <code value="imaging"/>
                    </coding>
                </category>
                <category>
                    <coding>
                        <system value="http://terminology.hl7.org/CodeSystem/v2-0074"/>
                        <code value="CUS"/>
                        <display value="Cardiac Ultrasound"/>
                    </coding>
                </category>
                <code>
                    <coding>
                        <system value="http://snomed.info/sct"/>
                        <code value="399222008"/>
                        <display value="Pulmonary valve feature"/>
                    </coding>
                    <text value="Pulmonary Valve"/>
                </code>
                <subject>
                    <reference value="urn:uuid:995138d0-b8bc-4bd9-b49d-d2d025d39ae7"/>
                </subject>
                <effectiveDateTime value="2019-01-06T09:45:00+10:00"/>
                <performer>
                    <reference value="urn:uuid:04ac8978-bc60-4492-aa07-f62568ebe5c6"/>
                </performer>
                <bodySite>
                    <coding>
                        <system value="http://snomed.info/sct"/>
                        <code value="39057004"/>
                        <display value="Pulmonary valve structure"/>
                    </coding>
                </bodySite>
                <method>
                    <coding>
                        <system value="http://snomed.info/sct"/>
                        <code value="278292003"/>
                        <display value="Ultrasound imaging"/>
                    </coding>
                    <coding>
                        <system value="http://loinc.org"/>
                        <code value="LP6617-7"/>
                        <display value="Doppler"/>
                    </coding>
                </method>
                <hasMember> 
                    <reference value="urn:uuid:5aec02f5-2aa9-4c4d-970d-a56786b6e824"/> 
                </hasMember>
                <hasMember> 
                    <reference value="urn:uuid:a05caa35-3ae4-4779-968c-389538f89c7c"/> 
                </hasMember>
            </Observation>
        </resource>
    </entry>
    <entry>
        <fullUrl value="urn:uuid:bcb8d97a-463c-489f-8874-e88878f09ce2"/>
        <resource>
            <Observation xmlns="http://hl7.org/fhir">
                <id value="bcb8d97a-463c-489f-8874-e88878f09ce2"/>
                <meta>
                    <profile
                        value="http://ns.electronichealth.net.au/ci/fhir/StructureDefinition/observation-otherdiag-atomic-1"
                    />
                </meta>
                <status value="final"/>
                <category>
                    <coding>
                        <system value="http://terminology.hl7.org/CodeSystem/observation-category"/>
                        <code value="imaging"/>
                    </coding>
                </category>
                <category>
                    <coding>
                        <system value="http://terminology.hl7.org/CodeSystem/v2-0074"/>
                        <code value="CUS"/>
                        <display value="Cardiac Ultrasound"/>
                    </coding>
                </category>
                <code>
                    <coding>
                        <system value="http://loinc.org"/>
                        <code value="29430-6"/>
                        <display value="Interventricular septum Thickness during diastole by US 2D"/>
                    </coding>
                    <text value="IVS d"/>
                </code>
                <subject>
                    <reference value="urn:uuid:995138d0-b8bc-4bd9-b49d-d2d025d39ae7"/>
                </subject>
                <effectiveDateTime value="2019-01-06T09:45:00+10:00"/>
                <performer>
                    <reference value="urn:uuid:04ac8978-bc60-4492-aa07-f62568ebe5c6"/>
                </performer>
                <valueQuantity> 
                    <value value="0.7"/> 
                    <unit value="cm"/> 
                    <system value="http://unitsofmeasure.org"/> 
                    <code value="cm"/> 
                </valueQuantity>
                <bodySite>
                    <coding>
                        <system value="http://snomed.info/sct"/>
                        <code value="87878005"/>
                        <display value="Left ventricular structure"/>
                    </coding>
                </bodySite>
                <method>
                    <coding>
                        <system value="http://snomed.info/sct"/>
                        <code value="278292003"/>
                        <display value="Ultrasound imaging"/>
                    </coding>
                    <coding>
                        <system value="http://snomed.info/sct"/>
                        <code value="399064001"/>
                        <display value="2D mode ultrasound"/>
                    </coding>
                </method>
            </Observation>
        </resource>
    </entry>
    <entry>
        <fullUrl value="urn:uuid:03868c1b-b633-48c9-965c-db5b2948e425"/>
        <resource>
            <Observation xmlns="http://hl7.org/fhir">
                <id value="03868c1b-b633-48c9-965c-db5b2948e425"/>
                <meta>
                    <profile
                        value="http://ns.electronichealth.net.au/ci/fhir/StructureDefinition/observation-otherdiag-atomic-1"
                    />
                </meta>
                <status value="final"/>
                <category>
                    <coding>
                        <system value="http://terminology.hl7.org/CodeSystem/observation-category"/>
                        <code value="imaging"/>
                    </coding>
                </category>
                <category>
                    <coding>
                        <system value="http://terminology.hl7.org/CodeSystem/v2-0074"/>
                        <code value="CUS"/>
                        <display value="Cardiac Ultrasound"/>
                    </coding>
                </category>
                <code>
                    <coding>
                        <system value="http://loinc.org"/>
                        <code value="29442-1"/>
                        <display value="Left ventricular posterior wall Thickness during diastole by US 2D"/>
                    </coding>
                    <text value="LVPW d"/>
                </code>
                <subject>
                    <reference value="urn:uuid:995138d0-b8bc-4bd9-b49d-d2d025d39ae7"/>
                </subject>
                <effectiveDateTime value="2019-01-06T09:45:00+10:00"/>
                <performer>
                    <reference value="urn:uuid:04ac8978-bc60-4492-aa07-f62568ebe5c6"/>
                </performer>
                <valueQuantity> 
                    <value value="0.6"/> 
                    <unit value="cm"/> 
                    <system value="http://unitsofmeasure.org"/> 
                    <code value="cm"/> 
                </valueQuantity>
                <bodySite>
                    <coding>
                        <system value="http://snomed.info/sct"/>
                        <code value="87878005"/>
                        <display value="Left ventricular structure"/>
                    </coding>
                </bodySite>
                <method>
                    <coding>
                        <system value="http://snomed.info/sct"/>
                        <code value="278292003"/>
                        <display value="Ultrasound imaging"/>
                    </coding>
                    <coding>
                        <system value="http://snomed.info/sct"/>
                        <code value="399064001"/>
                        <display value="2D mode ultrasound"/>
                    </coding>
                </method>
            </Observation>
        </resource>
    </entry>
    <entry>
        <fullUrl value="urn:uuid:4d63b08b-ad30-45aa-8786-1b6f6687867c"/>
        <resource>
            <Observation xmlns="http://hl7.org/fhir">
                <id value="4d63b08b-ad30-45aa-8786-1b6f6687867c"/>
                <meta>
                    <profile
                        value="http://ns.electronichealth.net.au/ci/fhir/StructureDefinition/observation-otherdiag-atomic-1"
                    />
                </meta>
                <status value="final"/>
                <category>
                    <coding>
                        <system value="http://terminology.hl7.org/CodeSystem/observation-category"/>
                        <code value="imaging"/>
                    </coding>
                </category>
                <category>
                    <coding>
                        <system value="http://terminology.hl7.org/CodeSystem/v2-0074"/>
                        <code value="CUS"/>
                        <display value="Cardiac Ultrasound"/>
                    </coding>
                </category>
                <code>
                    <coding>
                        <system value="http://loinc.org"/>
                        <code value="18083-6"/>
                        <display value="LV Diam dias, short 2D US"/>
                    </coding>
                    <text value="LVID d"/>
                </code>
                <subject>
                    <reference value="urn:uuid:995138d0-b8bc-4bd9-b49d-d2d025d39ae7"/>
                </subject>
                <effectiveDateTime value="2019-01-06T09:45:00+10:00"/>
                <performer>
                    <reference value="urn:uuid:04ac8978-bc60-4492-aa07-f62568ebe5c6"/>
                </performer>
                <valueQuantity> 
                    <value value="6.2"/> 
                    <unit value="cm"/> 
                    <system value="http://unitsofmeasure.org"/> 
                    <code value="cm"/> 
                </valueQuantity>
                <bodySite>
                    <coding>
                        <system value="http://snomed.info/sct"/>
                        <code value="87878005"/>
                        <display value="Left ventricular structure"/>
                    </coding>
                </bodySite>
                <method>
                    <coding>
                        <system value="http://snomed.info/sct"/>
                        <code value="278292003"/>
                        <display value="Ultrasound imaging"/>
                    </coding>
                    <coding>
                        <system value="http://snomed.info/sct"/>
                        <code value="399064001"/>
                        <display value="2D mode ultrasound"/>
                    </coding>
                </method>
            </Observation>
        </resource>
    </entry>
    <entry>
        <fullUrl value="urn:uuid:1089f285-ccb4-40b6-884e-73b2d690a406"/>
        <resource>
            <Observation xmlns="http://hl7.org/fhir">
                <id value="1089f285-ccb4-40b6-884e-73b2d690a406"/>
                <meta>
                    <profile
                        value="http://ns.electronichealth.net.au/ci/fhir/StructureDefinition/observation-otherdiag-atomic-1"
                    />
                </meta>
                <status value="final"/>
                <category>
                    <coding>
                        <system value="http://terminology.hl7.org/CodeSystem/observation-category"/>
                        <code value="imaging"/>
                    </coding>
                </category>
                <category>
                    <coding>
                        <system value="http://terminology.hl7.org/CodeSystem/v2-0074"/>
                        <code value="CUS"/>
                        <display value="Cardiac Ultrasound"/>
                    </coding>
                </category>
                <code>
                    <coding>
                        <system value="http://loinc.org"/>
                        <code value="18085-1"/>
                        <display value="LV Diam sys, short 2D US"/>
                    </coding>
                    <text value="LVID s"/>
                </code>
                <subject>
                    <reference value="urn:uuid:995138d0-b8bc-4bd9-b49d-d2d025d39ae7"/>
                </subject>
                <effectiveDateTime value="2019-01-06T09:45:00+10:00"/>
                <performer>
                    <reference value="urn:uuid:04ac8978-bc60-4492-aa07-f62568ebe5c6"/>
                </performer>
                <valueQuantity> 
                    <value value="4.0"/> 
                    <unit value="cm"/> 
                    <system value="http://unitsofmeasure.org"/> 
                    <code value="cm"/> 
                </valueQuantity>
                <bodySite>
                    <coding>
                        <system value="http://snomed.info/sct"/>
                        <code value="87878005"/>
                        <display value="Left ventricular structure"/>
                    </coding>
                </bodySite>
                <method>
                    <coding>
                        <system value="http://snomed.info/sct"/>
                        <code value="278292003"/>
                        <display value="Ultrasound imaging"/>
                    </coding>
                    <coding>
                        <system value="http://snomed.info/sct"/>
                        <code value="399064001"/>
                        <display value="2D mode ultrasound"/>
                    </coding>
                </method>
            </Observation>
        </resource>
    </entry>
    <entry>
        <fullUrl value="urn:uuid:9de1ab7d-9ed5-4700-821c-94ad42ed58ea"/>
        <resource>
            <Observation xmlns="http://hl7.org/fhir">
                <id value="9de1ab7d-9ed5-4700-821c-94ad42ed58ea"/>
                <meta>
                    <profile
                        value="http://ns.electronichealth.net.au/ci/fhir/StructureDefinition/observation-otherdiag-atomic-1"
                    />
                </meta>
                <status value="final"/>
                <category>
                    <coding>
                        <system value="http://terminology.hl7.org/CodeSystem/observation-category"/>
                        <code value="imaging"/>
                    </coding>
                </category>
                <category>
                    <coding>
                        <system value="http://terminology.hl7.org/CodeSystem/v2-0074"/>
                        <code value="CUS"/>
                        <display value="Cardiac Ultrasound"/>
                    </coding>
                </category>
                <code>
                    <coding>
                        <system value="http://loinc.org"/>
                        <code value="29434-8"/>
                        <display value="Left ventricular Fractional shortening minor axis by US 2D"/>
                    </coding>
                    <text value="LVFS"/>
                </code>
                <subject>
                    <reference value="urn:uuid:995138d0-b8bc-4bd9-b49d-d2d025d39ae7"/>
                </subject>
                <effectiveDateTime value="2019-01-06T09:45:00+10:00"/>
                <performer>
                    <reference value="urn:uuid:04ac8978-bc60-4492-aa07-f62568ebe5c6"/>
                </performer>
                <valueQuantity> 
                    <value value="35"/> 
                    <unit value="%"/> 
                    <system value="http://unitsofmeasure.org"/> 
                    <code value="%"/> 
                </valueQuantity>
                <bodySite>
                    <coding>
                        <system value="http://snomed.info/sct"/>
                        <code value="87878005"/>
                        <display value="Left ventricular structure"/>
                    </coding>
                </bodySite>
                <method>
                    <coding>
                        <system value="http://snomed.info/sct"/>
                        <code value="278292003"/>
                        <display value="Ultrasound imaging"/>
                    </coding>
                    <coding>
                        <system value="http://snomed.info/sct"/>
                        <code value="399064001"/>
                        <display value="2D mode ultrasound"/>
                    </coding>
                </method>
            </Observation>
        </resource>
    </entry>
    <entry>
        <fullUrl value="urn:uuid:49de0f95-cb33-4048-a99e-b5abccb48d73"/>
        <resource>
            <Observation xmlns="http://hl7.org/fhir">
                <id value="49de0f95-cb33-4048-a99e-b5abccb48d73"/>
                <meta>
                    <profile
                        value="http://ns.electronichealth.net.au/ci/fhir/StructureDefinition/observation-otherdiag-atomic-1"
                    />
                </meta>
                <status value="final"/>
                <category>
                    <coding>
                        <system value="http://terminology.hl7.org/CodeSystem/observation-category"/>
                        <code value="imaging"/>
                    </coding>
                </category>
                <category>
                    <coding>
                        <system value="http://terminology.hl7.org/CodeSystem/v2-0074"/>
                        <code value="CUS"/>
                        <display value="Cardiac Ultrasound"/>
                    </coding>
                </category>
                <code>
                    <coding>
                        <system value="http://loinc.org"/>
                        <code value="8806-2"/>
                        <display value="Left ventricular Ejection fraction by 2D echo"/>
                    </coding>
                    <text value="LVEF 2D"/>
                </code>
                <subject>
                    <reference value="urn:uuid:995138d0-b8bc-4bd9-b49d-d2d025d39ae7"/>
                </subject>
                <effectiveDateTime value="2019-01-06T09:45:00+10:00"/>
                <performer>
                    <reference value="urn:uuid:04ac8978-bc60-4492-aa07-f62568ebe5c6"/>
                </performer>
                <valueQuantity> 
                    <value value="64"/> 
                    <unit value="%"/> 
                    <system value="http://unitsofmeasure.org"/> 
                    <code value="%"/> 
                </valueQuantity>
                <bodySite>
                    <coding>
                        <system value="http://snomed.info/sct"/>
                        <code value="87878005"/>
                        <display value="Left ventricular structure"/>
                    </coding>
                </bodySite>
                <method>
                    <coding>
                        <system value="http://snomed.info/sct"/>
                        <code value="278292003"/>
                        <display value="Ultrasound imaging"/>
                    </coding>
                    <coding>
                        <system value="http://snomed.info/sct"/>
                        <code value="399064001"/>
                        <display value="2D mode ultrasound"/>
                    </coding>
                </method>
            </Observation>
        </resource>
    </entry>
    <entry>
        <fullUrl value="urn:uuid:36814e69-db51-4030-b979-06df71af1ce5"/>
        <resource>
            <Observation xmlns="http://hl7.org/fhir">
                <id value="36814e69-db51-4030-b979-06df71af1ce5"/>
                <meta>
                    <profile
                        value="http://ns.electronichealth.net.au/ci/fhir/StructureDefinition/observation-otherdiag-atomic-1"
                    />
                </meta>
                <status value="final"/>
                <category>
                    <coding>
                        <system value="http://terminology.hl7.org/CodeSystem/observation-category"/>
                        <code value="imaging"/>
                    </coding>
                </category>
                <category>
                    <coding>
                        <system value="http://terminology.hl7.org/CodeSystem/v2-0074"/>
                        <code value="CUS"/>
                        <display value="Cardiac Ultrasound"/>
                    </coding>
                </category>
                <code>
                    <coding>
                        <system value="http://loinc.org"/>
                        <code value="17977-0"/>
                        <display value="LA Apical 4CH Area 2D US"/>
                    </coding>
                    <text value="LA Area"/>
                </code>
                <subject>
                    <reference value="urn:uuid:995138d0-b8bc-4bd9-b49d-d2d025d39ae7"/>
                </subject>
                <effectiveDateTime value="2019-01-06T09:45:00+10:00"/>
                <performer>
                    <reference value="urn:uuid:04ac8978-bc60-4492-aa07-f62568ebe5c6"/>
                </performer>
                <valueQuantity> 
                    <value value="21"/> 
                    <unit value="cm2"/> 
                    <system value="http://unitsofmeasure.org"/> 
                    <code value="cm2"/> 
                </valueQuantity>
                <bodySite>
                    <coding>
                        <system value="http://snomed.info/sct"/>
                        <code value="82471001"/>
                        <display value="Left atrial structure"/>
                    </coding>
                </bodySite>
                <method>
                    <coding>
                        <system value="http://snomed.info/sct"/>
                        <code value="278292003"/>
                        <display value="Ultrasound imaging"/>
                    </coding>
                    <coding>
                        <system value="http://snomed.info/sct"/>
                        <code value="399064001"/>
                        <display value="2D mode ultrasound"/>
                    </coding>
                </method>
            </Observation>
        </resource>
    </entry>
    <entry>
        <fullUrl value="urn:uuid:013ec8e1-a648-40c7-a8cc-38541d775038"/>
        <resource>
            <Observation xmlns="http://hl7.org/fhir">
                <id value="013ec8e1-a648-40c7-a8cc-38541d775038"/>
                <meta>
                    <profile
                        value="http://ns.electronichealth.net.au/ci/fhir/StructureDefinition/observation-otherdiag-atomic-1"
                    />
                </meta>
                <status value="final"/>
                <category>
                    <coding>
                        <system value="http://terminology.hl7.org/CodeSystem/observation-category"/>
                        <code value="imaging"/>
                    </coding>
                </category>
                <category>
                    <coding>
                        <system value="http://terminology.hl7.org/CodeSystem/v2-0074"/>
                        <code value="CUS"/>
                        <display value="Cardiac Ultrasound"/>
                    </coding>
                </category>
                <code>
                    <coding>
                        <system value="http://loinc.org"/>
                        <code value="17988-7"/>
                        <display value="RA Apical 4CH Area 2D US"/>
                    </coding>
                    <text value="RA Area"/>
                </code>
                <subject>
                    <reference value="urn:uuid:995138d0-b8bc-4bd9-b49d-d2d025d39ae7"/>
                </subject>
                <effectiveDateTime value="2019-01-06T09:45:00+10:00"/>
                <performer>
                    <reference value="urn:uuid:04ac8978-bc60-4492-aa07-f62568ebe5c6"/>
                </performer>
                <valueQuantity> 
                    <value value="20"/> 
                    <unit value="cm2"/> 
                    <system value="http://unitsofmeasure.org"/> 
                    <code value="cm2"/> 
                </valueQuantity>
                <bodySite>
                    <coding>
                        <system value="http://snomed.info/sct"/>
                        <code value="73829009"/>
                        <display value="Right atrial structure"/>
                    </coding>
                </bodySite>
                <method>
                    <coding>
                        <system value="http://snomed.info/sct"/>
                        <code value="278292003"/>
                        <display value="Ultrasound imaging"/>
                    </coding>
                    <coding>
                        <system value="http://snomed.info/sct"/>
                        <code value="399064001"/>
                        <display value="2D mode ultrasound"/>
                    </coding>
                </method>
            </Observation>
        </resource>
    </entry>
    <entry>
        <fullUrl value="urn:uuid:fffe8380-10c2-4574-be6c-e87b0161b32a"/>
        <resource>
            <Observation xmlns="http://hl7.org/fhir">
                <id value="fffe8380-10c2-4574-be6c-e87b0161b32a"/>
                <meta>
                    <profile
                        value="http://ns.electronichealth.net.au/ci/fhir/StructureDefinition/observation-otherdiag-atomic-1"
                    />
                </meta>
                <status value="final"/>
                <category>
                    <coding>
                        <system value="http://terminology.hl7.org/CodeSystem/observation-category"/>
                        <code value="imaging"/>
                    </coding>
                </category>
                <category>
                    <coding>
                        <system value="http://terminology.hl7.org/CodeSystem/v2-0074"/>
                        <code value="CUS"/>
                        <display value="Cardiac Ultrasound"/>
                    </coding>
                </category>
                <code>
                    <coding>
                        <system value="http://loinc.org"/>
                        <code value="75989-4"/>
                        <display value="Left ventricular End systolic volume"/>
                    </coding>
                    <text value="LV vol"/>
                </code>
                <subject>
                    <reference value="urn:uuid:995138d0-b8bc-4bd9-b49d-d2d025d39ae7"/>
                </subject>
                <effectiveDateTime value="2019-01-06T09:45:00+10:00"/>
                <performer>
                    <reference value="urn:uuid:04ac8978-bc60-4492-aa07-f62568ebe5c6"/>
                </performer>
                <valueQuantity> 
                    <value value="119"/> 
                    <unit value="mL"/> 
                    <system value="http://unitsofmeasure.org"/> 
                    <code value="mL"/> 
                </valueQuantity>
                <bodySite>
                    <coding>
                        <system value="http://snomed.info/sct"/>
                        <code value="87878005"/>
                        <display value="Left ventricular structure"/>
                    </coding>
                </bodySite>
                <method>
                    <coding>
                        <system value="http://snomed.info/sct"/>
                        <code value="278292003"/>
                        <display value="Ultrasound imaging"/>
                    </coding>
                </method>
            </Observation>
        </resource>
    </entry>
    <entry>
        <fullUrl value="urn:uuid:1192d7cd-1f00-4192-ad41-6dd4f17a4dba"/>
        <resource>
            <Observation xmlns="http://hl7.org/fhir">
                <id value="1192d7cd-1f00-4192-ad41-6dd4f17a4dba"/>
                <meta>
                    <profile
                        value="http://ns.electronichealth.net.au/ci/fhir/StructureDefinition/observation-otherdiag-atomic-1"
                    />
                </meta>
                <status value="final"/>
                <category>
                    <coding>
                        <system value="http://terminology.hl7.org/CodeSystem/observation-category"/>
                        <code value="imaging"/>
                    </coding>
                </category>
                <category>
                    <coding>
                        <system value="http://terminology.hl7.org/CodeSystem/v2-0074"/>
                        <code value="CUS"/>
                        <display value="Cardiac Ultrasound"/>
                    </coding>
                </category>
                <code>
                    <coding>
                        <system value="http://loinc.org"/>
                        <code value="80002-9"/>
                        <display value="LV ES vol (biplane MOD)/BSA"/>
                    </coding>
                    <text value="LV vol (BSA/SEX) ULN"/>
                </code>
                <subject>
                    <reference value="urn:uuid:995138d0-b8bc-4bd9-b49d-d2d025d39ae7"/>
                </subject>
                <effectiveDateTime value="2019-01-06T09:45:00+10:00"/>
                <performer>
                    <reference value="urn:uuid:04ac8978-bc60-4492-aa07-f62568ebe5c6"/>
                </performer>
                <valueQuantity> 
                    <value value="152"/> 
                    <unit value="mLs"/> 
                    <system value="http://unitsofmeasure.org"/> 
                    <code value="mL/s"/> 
                </valueQuantity>
                <bodySite>
                    <coding>
                        <system value="http://snomed.info/sct"/>
                        <code value="87878005"/>
                        <display value="Left ventricular structure"/>
                    </coding>
                </bodySite>
                <method>
                    <coding>
                        <system value="http://snomed.info/sct"/>
                        <code value="278292003"/>
                        <display value="Ultrasound imaging"/>
                    </coding>
                </method>
            </Observation>
        </resource>
    </entry>
    <entry>
        <fullUrl value="urn:uuid:849653d0-8ac9-45a4-8eaa-e3c1e2dbad32"/>
        <resource>
            <Observation xmlns="http://hl7.org/fhir">
                <id value="849653d0-8ac9-45a4-8eaa-e3c1e2dbad32"/>
                <meta>
                    <profile
                        value="http://ns.electronichealth.net.au/ci/fhir/StructureDefinition/observation-otherdiag-atomic-1"
                    />
                </meta>
                <status value="final"/>
                <category>
                    <coding>
                        <system value="http://terminology.hl7.org/CodeSystem/observation-category"/>
                        <code value="imaging"/>
                    </coding>
                </category>
                <category>
                    <coding>
                        <system value="http://terminology.hl7.org/CodeSystem/v2-0074"/>
                        <code value="CUS"/>
                        <display value="Cardiac Ultrasound"/>
                    </coding>
                </category>
                <code>
                    <coding>
                        <system value="http://loinc.org"/>
                        <code value="10230-1"/>
                        <display value="Left ventricular ejection fraction"/>
                    </coding>
                    <coding>
                        <system value="http://snomed.info/sct"/>
                        <code value="250908004"/>
                        <display value="Left ventricular ejection fraction"/>
                    </coding>
                    <text value="LV EF"/>
                </code>
                <subject>
                    <reference value="urn:uuid:995138d0-b8bc-4bd9-b49d-d2d025d39ae7"/>
                </subject>
                <effectiveDateTime value="2019-01-06T09:45:00+10:00"/>
                <performer>
                    <reference value="urn:uuid:04ac8978-bc60-4492-aa07-f62568ebe5c6"/>
                </performer>
                <valueQuantity> 
                    <value value="61"/> 
                    <unit value="%"/> 
                    <system value="http://unitsofmeasure.org"/> 
                    <code value="%"/> 
                </valueQuantity>
                <bodySite>
                    <coding>
                        <system value="http://snomed.info/sct"/>
                        <code value="87878005"/>
                        <display value="Left ventricular structure"/>
                    </coding>
                </bodySite>
                <method>
                    <coding>
                        <system value="http://snomed.info/sct"/>
                        <code value="278292003"/>
                        <display value="Ultrasound imaging"/>
                    </coding>
                </method>
            </Observation>
        </resource>
    </entry>
    <entry>
        <fullUrl value="urn:uuid:a3ac04cd-09ff-4437-b147-c7f26a0ca22f"/>
        <resource>
            <Observation xmlns="http://hl7.org/fhir">
                <id value="a3ac04cd-09ff-4437-b147-c7f26a0ca22f"/>
                <meta>
                    <profile
                        value="http://ns.electronichealth.net.au/ci/fhir/StructureDefinition/observation-otherdiag-atomic-1"
                    />
                </meta>
                <status value="final"/>
                <category>
                    <coding>
                        <system value="http://terminology.hl7.org/CodeSystem/observation-category"/>
                        <code value="imaging"/>
                    </coding>
                </category>
                <category>
                    <coding>
                        <system value="http://terminology.hl7.org/CodeSystem/v2-0074"/>
                        <code value="CUS"/>
                        <display value="Cardiac Ultrasound"/>
                    </coding>
                </category>
                <code>
                    <coding>
                        <system value="http://loinc.org"/>
                        <code value="18037-2"/>
                        <display value="MV Peak E-wave DOP"/>
                    </coding>
                    <text value="MV Peak"/>
                </code>
                <subject>
                    <reference value="urn:uuid:995138d0-b8bc-4bd9-b49d-d2d025d39ae7"/>
                </subject>
                <effectiveDateTime value="2019-01-06T09:45:00+10:00"/>
                <performer>
                    <reference value="urn:uuid:04ac8978-bc60-4492-aa07-f62568ebe5c6"/>
                </performer>
                <valueQuantity> 
                    <value value="0.6"/> 
                    <unit value="m/s"/> 
                    <system value="http://unitsofmeasure.org"/> 
                    <code value="m/s"/> 
                </valueQuantity>
                <bodySite>
                    <coding>
                        <system value="http://snomed.info/sct"/>
                        <code value="91134007"/>
                        <display value="Mitral valve structure"/>
                    </coding>
                </bodySite>
                <method>
                    <coding>
                        <system value="http://snomed.info/sct"/>
                        <code value="278292003"/>
                        <display value="Ultrasound imaging"/>
                    </coding>
                </method>
            </Observation>
        </resource>
    </entry>
    <entry>
        <fullUrl value="urn:uuid:fd0589aa-06e4-43b4-b71e-c08078530c07"/>
        <resource>
            <Observation xmlns="http://hl7.org/fhir">
                <id value="fd0589aa-06e4-43b4-b71e-c08078530c07"/>
                <meta>
                    <profile
                        value="http://ns.electronichealth.net.au/ci/fhir/StructureDefinition/observation-otherdiag-atomic-1"
                    />
                </meta>
                <status value="final"/>
                <category>
                    <coding>
                        <system value="http://terminology.hl7.org/CodeSystem/observation-category"/>
                        <code value="imaging"/>
                    </coding>
                </category>
                <category>
                    <coding>
                        <system value="http://terminology.hl7.org/CodeSystem/v2-0074"/>
                        <code value="CUS"/>
                        <display value="Cardiac Ultrasound"/>
                    </coding>
                </category>
                <code>
                    <coding>
                        <system value="http://loinc.org"/>
                        <code value="17978-8"/>
                        <display value="MV Peak A-wave DOP"/>
                    </coding>
                    <text value="MV Peak A"/>
                </code>
                <subject>
                    <reference value="urn:uuid:995138d0-b8bc-4bd9-b49d-d2d025d39ae7"/>
                </subject>
                <effectiveDateTime value="2019-01-06T09:45:00+10:00"/>
                <performer>
                    <reference value="urn:uuid:04ac8978-bc60-4492-aa07-f62568ebe5c6"/>
                </performer>
                <valueQuantity> 
                    <value value="0.5"/> 
                    <unit value="m/s"/> 
                    <system value="http://unitsofmeasure.org"/> 
                    <code value="m/s"/> 
                </valueQuantity>
                <bodySite>
                    <coding>
                        <system value="http://snomed.info/sct"/>
                        <code value="91134007"/>
                        <display value="Mitral valve structure"/>
                    </coding>
                </bodySite>
                <method>
                    <coding>
                        <system value="http://snomed.info/sct"/>
                        <code value="278292003"/>
                        <display value="Ultrasound imaging"/>
                    </coding>
                </method>
            </Observation>
        </resource>
    </entry>
    <entry>
        <fullUrl value="urn:uuid:eb117b41-0e4a-4c9f-a42b-de26edce5ab8"/>
        <resource>
            <Observation xmlns="http://hl7.org/fhir">
                <id value="eb117b41-0e4a-4c9f-a42b-de26edce5ab8"/>
                <meta>
                    <profile
                        value="http://ns.electronichealth.net.au/ci/fhir/StructureDefinition/observation-otherdiag-atomic-1"
                    />
                </meta>
                <status value="final"/>
                <category>
                    <coding>
                        <system value="http://terminology.hl7.org/CodeSystem/observation-category"/>
                        <code value="imaging"/>
                    </coding>
                </category>
                <category>
                    <coding>
                        <system value="http://terminology.hl7.org/CodeSystem/v2-0074"/>
                        <code value="CUS"/>
                        <display value="Cardiac Ultrasound"/>
                    </coding>
                </category>
                <code>
                    <coding>
                        <system value="http://loinc.org"/>
                        <code value="20217-6"/>
                        <display value="Circ sys Decel Time US"/>
                    </coding>
                    <text value="Decel Time"/>
                </code>
                <subject>
                    <reference value="urn:uuid:995138d0-b8bc-4bd9-b49d-d2d025d39ae7"/>
                </subject>
                <effectiveDateTime value="2019-01-06T09:45:00+10:00"/>
                <performer>
                    <reference value="urn:uuid:04ac8978-bc60-4492-aa07-f62568ebe5c6"/>
                </performer>
                <valueQuantity> 
                    <value value="240"/> 
                    <unit value="msec"/> 
                    <system value="http://unitsofmeasure.org"/> 
                    <code value="ms"/> 
                </valueQuantity>
                <bodySite>
                    <coding>
                        <system value="http://snomed.info/sct"/>
                        <code value="91134007"/>
                        <display value="Mitral valve structure"/>
                    </coding>
                </bodySite>
                <method>
                    <coding>
                        <system value="http://snomed.info/sct"/>
                        <code value="278292003"/>
                        <display value="Ultrasound imaging"/>
                    </coding>
                </method>
            </Observation>
        </resource>
    </entry>
    <entry>
        <fullUrl value="urn:uuid:99ac7a67-729d-455a-a2f0-3f8bc8d4675e"/>
        <resource>
            <Observation xmlns="http://hl7.org/fhir">
                <id value="99ac7a67-729d-455a-a2f0-3f8bc8d4675e"/>
                <meta>
                    <profile
                        value="http://ns.electronichealth.net.au/ci/fhir/StructureDefinition/observation-otherdiag-atomic-1"
                    />
                </meta>
                <status value="final"/>
                <category>
                    <coding>
                        <system value="http://terminology.hl7.org/CodeSystem/observation-category"/>
                        <code value="imaging"/>
                    </coding>
                </category>
                <category>
                    <coding>
                        <system value="http://terminology.hl7.org/CodeSystem/v2-0074"/>
                        <code value="CUS"/>
                        <display value="Cardiac Ultrasound"/>
                    </coding>
                </category>
                <code>
                    <coding>
                        <system value="http://loinc.org"/>
                        <code value="59105-7"/>
                        <display value="A-wave duration US"/>
                    </coding>
                    <text value="MV A dur"/>
                </code>
                <subject>
                    <reference value="urn:uuid:995138d0-b8bc-4bd9-b49d-d2d025d39ae7"/>
                </subject>
                <effectiveDateTime value="2019-01-06T09:45:00+10:00"/>
                <performer>
                    <reference value="urn:uuid:04ac8978-bc60-4492-aa07-f62568ebe5c6"/>
                </performer>
                <valueQuantity> 
                    <value value="121"/> 
                    <unit value="msec"/> 
                    <system value="http://unitsofmeasure.org"/> 
                    <code value="ms"/> 
                </valueQuantity>
                <bodySite>
                    <coding>
                        <system value="http://snomed.info/sct"/>
                        <code value="91134007"/>
                        <display value="Mitral valve structure"/>
                    </coding>
                </bodySite>
                <method>
                    <coding>
                        <system value="http://snomed.info/sct"/>
                        <code value="278292003"/>
                        <display value="Ultrasound imaging"/>
                    </coding>
                </method>
            </Observation>
        </resource>
    </entry>
    <entry>
        <fullUrl value="urn:uuid:d76f5b94-6524-4463-9a02-b110d246dfc6"/>
        <resource>
            <Observation xmlns="http://hl7.org/fhir">
                <id value="d76f5b94-6524-4463-9a02-b110d246dfc6"/>
                <meta>
                    <profile
                        value="http://ns.electronichealth.net.au/ci/fhir/StructureDefinition/observation-otherdiag-atomic-1"
                    />
                </meta>
                <status value="final"/>
                <category>
                    <coding>
                        <system value="http://terminology.hl7.org/CodeSystem/observation-category"/>
                        <code value="imaging"/>
                    </coding>
                </category>
                <category>
                    <coding>
                        <system value="http://terminology.hl7.org/CodeSystem/v2-0074"/>
                        <code value="CUS"/>
                        <display value="Cardiac Ultrasound"/>
                    </coding>
                </category>
                <code>
                    <text value="E' MV Ann"/>
                </code>
                <subject>
                    <reference value="urn:uuid:995138d0-b8bc-4bd9-b49d-d2d025d39ae7"/>
                </subject>
                <effectiveDateTime value="2019-01-06T09:45:00+10:00"/>
                <performer>
                    <reference value="urn:uuid:04ac8978-bc60-4492-aa07-f62568ebe5c6"/>
                </performer>
                <valueQuantity> 
                    <value value="7"/> 
                    <unit value="cm/s"/> 
                </valueQuantity>
                <bodySite>
                    <coding>
                        <system value="http://snomed.info/sct"/>
                        <code value="91134007"/>
                        <display value="Mitral valve structure"/>
                    </coding>
                </bodySite>
                <method>
                    <coding>
                        <system value="http://snomed.info/sct"/>
                        <code value="278292003"/>
                        <display value="Ultrasound imaging"/>
                    </coding>
                </method>
            </Observation>
        </resource>
    </entry>
    <entry>
        <fullUrl value="urn:uuid:ee66f77d-f95b-4f76-b3bb-e95e01325ff2"/>
        <resource>
            <Observation xmlns="http://hl7.org/fhir">
                <id value="ee66f77d-f95b-4f76-b3bb-e95e01325ff2"/>
                <meta>
                    <profile
                        value="http://ns.electronichealth.net.au/ci/fhir/StructureDefinition/observation-otherdiag-atomic-1"
                    />
                </meta>
                <status value="final"/>
                <category>
                    <coding>
                        <system value="http://terminology.hl7.org/CodeSystem/observation-category"/>
                        <code value="imaging"/>
                    </coding>
                </category>
                <category>
                    <coding>
                        <system value="http://terminology.hl7.org/CodeSystem/v2-0074"/>
                        <code value="CUS"/>
                        <display value="Cardiac Ultrasound"/>
                    </coding>
                </category>
                <code>
                    <coding>
                        <system value="http://snomed.info/sct"/>
                        <code value="399140004"/>
                        <display value="Ratio of mitral valve peak velocity to left ventricular peak tissue velocity e-wave"/>
                    </coding>
                    <text value="E/e' ratio"/>
                </code>
                <subject>
                    <reference value="urn:uuid:995138d0-b8bc-4bd9-b49d-d2d025d39ae7"/>
                </subject>
                <effectiveDateTime value="2019-01-06T09:45:00+10:00"/>
                <performer>
                    <reference value="urn:uuid:04ac8978-bc60-4492-aa07-f62568ebe5c6"/>
                </performer>
                <valueQuantity> 
                    <value value="8"/> 
                </valueQuantity>
                <bodySite>
                    <coding>
                        <system value="http://snomed.info/sct"/>
                        <code value="91134007"/>
                        <display value="Mitral valve structure"/>
                    </coding>
                </bodySite>
                <method>
                    <coding>
                        <system value="http://snomed.info/sct"/>
                        <code value="278292003"/>
                        <display value="Ultrasound imaging"/>
                    </coding>
                </method>
            </Observation>
        </resource>
    </entry>
    <entry>
        <fullUrl value="urn:uuid:64583715-7ca6-48d6-a525-9a87527baa3e"/>
        <resource>
            <Observation xmlns="http://hl7.org/fhir">
                <id value="64583715-7ca6-48d6-a525-9a87527baa3e"/>
                <meta>
                    <profile
                        value="http://ns.electronichealth.net.au/ci/fhir/StructureDefinition/observation-otherdiag-atomic-1"
                    />
                </meta>
                <status value="final"/>
                <category>
                    <coding>
                        <system value="http://terminology.hl7.org/CodeSystem/observation-category"/>
                        <code value="imaging"/>
                    </coding>
                </category>
                <category>
                    <coding>
                        <system value="http://terminology.hl7.org/CodeSystem/v2-0074"/>
                        <code value="CUS"/>
                        <display value="Cardiac Ultrasound"/>
                    </coding>
                </category>
                <code>
                    <coding>
                        <system value="http://loinc.org"/>
                        <code value="18038-0"/>
                        <display value="MV Peak E-wave/Peak A wave DOP"/>
                    </coding>
                    <text value="E/A Ratio"/>
                </code>
                <subject>
                    <reference value="urn:uuid:995138d0-b8bc-4bd9-b49d-d2d025d39ae7"/>
                </subject>
                <effectiveDateTime value="2019-01-06T09:45:00+10:00"/>
                <performer>
                    <reference value="urn:uuid:04ac8978-bc60-4492-aa07-f62568ebe5c6"/>
                </performer>
                <valueQuantity> 
                    <value value="1.2"/> 
                </valueQuantity>
                <bodySite>
                    <coding>
                        <system value="http://snomed.info/sct"/>
                        <code value="91134007"/>
                        <display value="Mitral valve structure"/>
                    </coding>
                </bodySite>
                <method>
                    <coding>
                        <system value="http://snomed.info/sct"/>
                        <code value="278292003"/>
                        <display value="Ultrasound imaging"/>
                    </coding>
                </method>
            </Observation>
            
        </resource>
    </entry>
    <entry>
        <fullUrl value="urn:uuid:7fdb9338-e7fb-4c99-9b9e-a4b50a11a6fb"/>
        <resource>
            <Observation xmlns="http://hl7.org/fhir">
                <id value="7fdb9338-e7fb-4c99-9b9e-a4b50a11a6fb"/>
                <meta>
                    <profile
                        value="http://ns.electronichealth.net.au/ci/fhir/StructureDefinition/observation-otherdiag-atomic-1"
                    />
                </meta>
                <status value="final"/>
                <category>
                    <coding>
                        <system value="http://terminology.hl7.org/CodeSystem/observation-category"/>
                        <code value="imaging"/>
                    </coding>
                </category>
                <category>
                    <coding>
                        <system value="http://terminology.hl7.org/CodeSystem/v2-0074"/>
                        <code value="CUS"/>
                        <display value="Cardiac Ultrasound"/>
                    </coding>
                </category>
                <code>
                    <coding>
                        <system value="http://loinc.org"/>
                        <code value="79915-5"/>
                        <display value="Pulm vein A wave Vmax"/>
                    </coding>
                    <text value="RUPV A Vmax"/>
                </code>
                <subject>
                    <reference value="urn:uuid:995138d0-b8bc-4bd9-b49d-d2d025d39ae7"/>
                </subject>
                <effectiveDateTime value="2019-01-06T09:45:00+10:00"/>
                <performer>
                    <reference value="urn:uuid:04ac8978-bc60-4492-aa07-f62568ebe5c6"/>
                </performer>
                <valueQuantity> 
                    <value value="0.3"/> 
                    <unit value="m/s"/> 
                    <system value="http://unitsofmeasure.org"/> 
                    <code value="m/s"/> 
                </valueQuantity>
                <bodySite>
                    <coding>
                        <system value="http://snomed.info/sct"/>
                        <code value="278011000"/>
                        <display value="Entire superior right pulmonary vein"/>
                    </coding>
                </bodySite>
                <method>
                    <coding>
                        <system value="http://snomed.info/sct"/>
                        <code value="278292003"/>
                        <display value="Ultrasound imaging"/>
                    </coding>
                </method>
            </Observation>
        </resource>
    </entry>
    <entry>
        <fullUrl value="urn:uuid:1c388b20-852b-493f-ab0c-183b98b4d010"/>
        <resource>
            <Observation xmlns="http://hl7.org/fhir">
                <id value="1c388b20-852b-493f-ab0c-183b98b4d010"/>
                <meta>
                    <profile
                        value="http://ns.electronichealth.net.au/ci/fhir/StructureDefinition/observation-otherdiag-atomic-1"
                    />
                </meta>
                <status value="final"/>
                <category>
                    <coding>
                        <system value="http://terminology.hl7.org/CodeSystem/observation-category"/>
                        <code value="imaging"/>
                    </coding>
                </category>
                <category>
                    <coding>
                        <system value="http://terminology.hl7.org/CodeSystem/v2-0074"/>
                        <code value="CUS"/>
                        <display value="Cardiac Ultrasound"/>
                    </coding>
                </category>
                <code>
                    <coding>
                        <system value="http://loinc.org"/>
                        <code value="79917-1"/>
                        <display value="Pulm vein S wave Vmax"/>
                    </coding>
                    <coding>
                        <system value="http://snomed.info/sct"/>
                        <code value="399267001"/>
                        <display value="Pulmonary vein S-wave velocity time integral"/>
                    </coding>
                    <text value="RUPV S Vmax"/>
                </code>
                <subject>
                    <reference value="urn:uuid:995138d0-b8bc-4bd9-b49d-d2d025d39ae7"/>
                </subject>
                <effectiveDateTime value="2019-01-06T09:45:00+10:00"/>
                <performer>
                    <reference value="urn:uuid:04ac8978-bc60-4492-aa07-f62568ebe5c6"/>
                </performer>
                <valueQuantity> 
                    <value value="0.5"/> 
                    <unit value="m/s"/> 
                    <system value="http://unitsofmeasure.org"/> 
                    <code value="m/s"/> 
                </valueQuantity>
                <bodySite>
                    <coding>
                        <system value="http://snomed.info/sct"/>
                        <code value="278011000"/>
                        <display value="Entire superior right pulmonary vein"/>
                    </coding>
                </bodySite>
                <method>
                    <coding>
                        <system value="http://snomed.info/sct"/>
                        <code value="278292003"/>
                        <display value="Ultrasound imaging"/>
                    </coding>
                </method>
            </Observation>
        </resource>
    </entry>
    <entry>
        <fullUrl value="urn:uuid:77ae332c-d81b-4889-ab45-c5ea2a4ae4fd"/>
        <resource>
            <Observation xmlns="http://hl7.org/fhir">
                <id value="77ae332c-d81b-4889-ab45-c5ea2a4ae4fd"/>
                <meta>
                    <profile
                        value="http://ns.electronichealth.net.au/ci/fhir/StructureDefinition/observation-otherdiag-atomic-1"
                    />
                </meta>
                <status value="final"/>
                <category>
                    <coding>
                        <system value="http://terminology.hl7.org/CodeSystem/observation-category"/>
                        <code value="imaging"/>
                    </coding>
                </category>
                <category>
                    <coding>
                        <system value="http://terminology.hl7.org/CodeSystem/v2-0074"/>
                        <code value="CUS"/>
                        <display value="Cardiac Ultrasound"/>
                    </coding>
                </category>
                <code>
                    <coding>
                        <system value="http://loinc.org"/>
                        <code value="79916-3"/>
                        <display value="Pulm vein D wave Vmax"/>
                    </coding>
                    <coding>
                        <system value="http://snomed.info/sct"/>
                        <code value="399039004"/>
                        <display value="Pulmonary vein D-wave velocity time integral"/>
                    </coding>
                    <text value="RUPV D Vmax"/>
                </code>
                <subject>
                    <reference value="urn:uuid:995138d0-b8bc-4bd9-b49d-d2d025d39ae7"/>
                </subject>
                <effectiveDateTime value="2019-01-06T09:45:00+10:00"/>
                <performer>
                    <reference value="urn:uuid:04ac8978-bc60-4492-aa07-f62568ebe5c6"/>
                </performer>
                <valueQuantity> 
                    <value value="0.4"/> 
                    <unit value="m/s"/> 
                    <system value="http://unitsofmeasure.org"/> 
                    <code value="m/s"/> 
                </valueQuantity>
                <bodySite>
                    <coding>
                        <system value="http://snomed.info/sct"/>
                        <code value="278011000"/>
                        <display value="Entire superior right pulmonary vein"/>
                    </coding>
                </bodySite>
                <method>
                    <coding>
                        <system value="http://snomed.info/sct"/>
                        <code value="278292003"/>
                        <display value="Ultrasound imaging"/>
                    </coding>
                </method>
            </Observation>
        </resource>
    </entry>
    <entry>
        <fullUrl value="urn:uuid:e651b98f-e714-4691-9361-5d9e1bf4f917"/>
        <resource>
            <Observation xmlns="http://hl7.org/fhir">
                <id value="e651b98f-e714-4691-9361-5d9e1bf4f917"/>
                <meta>
                    <profile
                        value="http://ns.electronichealth.net.au/ci/fhir/StructureDefinition/observation-otherdiag-atomic-1"
                    />
                </meta>
                <status value="final"/>
                <category>
                    <coding>
                        <system value="http://terminology.hl7.org/CodeSystem/observation-category"/>
                        <code value="imaging"/>
                    </coding>
                </category>
                <category>
                    <coding>
                        <system value="http://terminology.hl7.org/CodeSystem/v2-0074"/>
                        <code value="CUS"/>
                        <display value="Cardiac Ultrasound"/>
                    </coding>
                </category>
                <code>
                    <coding>
                        <system value="http://loinc.org"/>
                        <code value="79912-2"/>
                        <display value="MV PHT diastole"/>
                    </coding>
                    <text value="MV P1/2 Time"/>
                </code>
                <subject>
                    <reference value="urn:uuid:995138d0-b8bc-4bd9-b49d-d2d025d39ae7"/>
                </subject>
                <effectiveDateTime value="2019-01-06T09:45:00+10:00"/>
                <performer>
                    <reference value="urn:uuid:04ac8978-bc60-4492-aa07-f62568ebe5c6"/>
                </performer>
                <valueQuantity> 
                    <value value="61"/> 
                    <unit value="msec"/> 
                    <system value="http://unitsofmeasure.org"/> 
                    <code value="ms"/> 
                </valueQuantity>
                <bodySite>
                    <coding>
                        <system value="http://snomed.info/sct"/>
                        <code value="91134007"/>
                        <display value="Mitral valve structure"/>
                    </coding>
                </bodySite>
                <method>
                    <coding>
                        <system value="http://snomed.info/sct"/>
                        <code value="278292003"/>
                        <display value="Ultrasound imaging"/>
                    </coding>
                </method>
            </Observation>
        </resource>
    </entry>
    <entry>
        <fullUrl value="urn:uuid:abe854a0-814a-40aa-b3d8-870d18e7c7d8"/>
        <resource>
            <Observation xmlns="http://hl7.org/fhir">
                <id value="abe854a0-814a-40aa-b3d8-870d18e7c7d8"/>
                <meta>
                    <profile
                        value="http://ns.electronichealth.net.au/ci/fhir/StructureDefinition/observation-otherdiag-atomic-1"
                    />
                </meta>
                <status value="final"/>
                <category>
                    <coding>
                        <system value="http://terminology.hl7.org/CodeSystem/observation-category"/>
                        <code value="imaging"/>
                    </coding>
                </category>
                <category>
                    <coding>
                        <system value="http://terminology.hl7.org/CodeSystem/v2-0074"/>
                        <code value="CUS"/>
                        <display value="Cardiac Ultrasound"/>
                    </coding>
                </category>
                <code>
                    <coding>
                        <system value="http://loinc.org"/>
                        <code value="80069-8"/>
                        <display value="Mitral valve Effective orifice area during diastole by US.doppler pressure half time"/>
                    </coding>
                    <text value="MV area, PHT"/>
                </code>
                <subject>
                    <reference value="urn:uuid:995138d0-b8bc-4bd9-b49d-d2d025d39ae7"/>
                </subject>
                <effectiveDateTime value="2019-01-06T09:45:00+10:00"/>
                <performer>
                    <reference value="urn:uuid:04ac8978-bc60-4492-aa07-f62568ebe5c6"/>
                </performer>
                <valueQuantity> 
                    <value value="3.2"/> 
                    <unit value="cm2"/> 
                    <system value="http://unitsofmeasure.org"/> 
                    <code value="cm2"/> 
                </valueQuantity>
                <bodySite>
                    <coding>
                        <system value="http://snomed.info/sct"/>
                        <code value="91134007"/>
                        <display value="Mitral valve structure"/>
                    </coding>
                </bodySite>
                <method>
                    <coding>
                        <system value="http://snomed.info/sct"/>
                        <code value="278292003"/>
                        <display value="Ultrasound imaging"/>
                    </coding>
                </method>
            </Observation>
        </resource>
    </entry>
    <entry>
        <fullUrl value="urn:uuid:aov-maxvel"/>
        <resource>
            <Observation xmlns="http://hl7.org/fhir">
                <id value="aov-maxvel"/>
                <meta>
                    <profile
                        value="http://ns.electronichealth.net.au/ci/fhir/StructureDefinition/observation-otherdiag-atomic-1"
                    />
                </meta>
                <status value="final"/>
                <category>
                    <coding>
                        <system value="http://terminology.hl7.org/CodeSystem/observation-category"/>
                        <code value="imaging"/>
                    </coding>
                </category>
                <category>
                    <coding>
                        <system value="http://terminology.hl7.org/CodeSystem/v2-0074"/>
                        <code value="CUS"/>
                        <display value="Cardiac Ultrasound"/>
                    </coding>
                </category>
                <code>
                    <coding>
                        <system value="http://loinc.org"/>
                        <code value="11726-7"/>
                        <display value="Circ sys Vmax sys DOP"/>
                    </coding>
                    <text value="AoV Max Vel"/>
                </code>
                <subject>
                    <reference value="urn:uuid:995138d0-b8bc-4bd9-b49d-d2d025d39ae7"/>
                </subject>
                <effectiveDateTime value="2019-01-06T09:45:00+10:00"/>
                <performer>
                    <reference value="urn:uuid:04ac8978-bc60-4492-aa07-f62568ebe5c6"/>
                </performer>
                <valueQuantity> 
                    <value value="1.2"/> 
                    <unit value="m/s"/> 
                    <system value="http://unitsofmeasure.org"/> 
                    <code value="m/s"/> 
                </valueQuantity>
                <bodySite>
                    <coding>
                        <system value="http://snomed.info/sct"/>
                        <code value="34202007"/>
                        <display value="Aortic valve structure"/>
                    </coding>
                </bodySite>
                <method>
                    <coding>
                        <system value="http://snomed.info/sct"/>
                        <code value="278292003"/>
                        <display value="Ultrasound imaging"/>
                    </coding>
                </method>
            </Observation>
        </resource>
    </entry>
    <entry>
        <fullUrl value="urn:uuid:710d443a-b9a9-43c5-8c44-c05c0486012d"/>
        <resource>
            <Observation xmlns="http://hl7.org/fhir">
                <id value="710d443a-b9a9-43c5-8c44-c05c0486012d"/>
                <meta>
                    <profile
                        value="http://ns.electronichealth.net.au/ci/fhir/StructureDefinition/observation-otherdiag-atomic-1"
                    />
                </meta>
                <status value="final"/>
                <category>
                    <coding>
                        <system value="http://terminology.hl7.org/CodeSystem/observation-category"/>
                        <code value="imaging"/>
                    </coding>
                </category>
                <category>
                    <coding>
                        <system value="http://terminology.hl7.org/CodeSystem/v2-0074"/>
                        <code value="CUS"/>
                        <display value="Cardiac Ultrasound"/>
                    </coding>
                </category>
                <code>
                    <coding>
                        <system value="http://loinc.org"/>
                        <code value="20247-3"/>
                        <display value="Peak grad US+Calc"/>
                    </coding>
                    <text value="AoV Peak PG"/>
                </code>
                <subject>
                    <reference value="urn:uuid:995138d0-b8bc-4bd9-b49d-d2d025d39ae7"/>
                </subject>
                <effectiveDateTime value="2019-01-06T09:45:00+10:00"/>
                <performer>
                    <reference value="urn:uuid:04ac8978-bc60-4492-aa07-f62568ebe5c6"/>
                </performer>
                <valueQuantity> 
                    <value value="6"/> 
                    <unit value="mmHg"/> 
                    <system value="http://unitsofmeasure.org"/> 
                    <code value="mm[Hg]"/> 
                </valueQuantity>
                <bodySite>
                    <coding>
                        <system value="http://snomed.info/sct"/>
                        <code value="34202007"/>
                        <display value="Aortic valve structure"/>
                    </coding>
                </bodySite>
                <method>
                    <coding>
                        <system value="http://snomed.info/sct"/>
                        <code value="278292003"/>
                        <display value="Ultrasound imaging"/>
                    </coding>
                </method>
            </Observation>
        </resource>
    </entry>
    <entry>
        <fullUrl value="urn:uuid:65a05be4-90e5-4340-9408-fba49b75cb0b"/>
        <resource>
            <Observation xmlns="http://hl7.org/fhir">
                <id value="65a05be4-90e5-4340-9408-fba49b75cb0b"/>
                <meta>
                    <profile
                        value="http://ns.electronichealth.net.au/ci/fhir/StructureDefinition/observation-otherdiag-atomic-1"
                    />
                </meta>
                <status value="final"/>
                <category>
                    <coding>
                        <system value="http://terminology.hl7.org/CodeSystem/observation-category"/>
                        <code value="imaging"/>
                    </coding>
                </category>
                <category>
                    <coding>
                        <system value="http://terminology.hl7.org/CodeSystem/v2-0074"/>
                        <code value="CUS"/>
                        <display value="Cardiac Ultrasound"/>
                    </coding>
                </category>
                <code>
                    <coding>
                        <system value="http://loinc.org"/>
                        <code value="20256-4"/>
                        <display value="Grad.mean DOP"/>
                    </coding>
                    <text value="AoV Mean PG"/>
                </code>
                <subject>
                    <reference value="urn:uuid:995138d0-b8bc-4bd9-b49d-d2d025d39ae7"/>
                </subject>
                <effectiveDateTime value="2019-01-06T09:45:00+10:00"/>
                <performer>
                    <reference value="urn:uuid:04ac8978-bc60-4492-aa07-f62568ebe5c6"/>
                </performer>
                <valueQuantity> 
                    <value value="4"/> 
                    <unit value="mmHg"/> 
                    <system value="http://unitsofmeasure.org"/> 
                    <code value="mm[Hg]"/> 
                </valueQuantity>
                <bodySite>
                    <coding>
                        <system value="http://snomed.info/sct"/>
                        <code value="34202007"/>
                        <display value="Aortic valve structure"/>
                    </coding>
                </bodySite>
                <method>
                    <coding>
                        <system value="http://snomed.info/sct"/>
                        <code value="278292003"/>
                        <display value="Ultrasound imaging"/>
                    </coding>
                </method>
            </Observation>
        </resource>
    </entry>
    <entry>
        <fullUrl value="urn:uuid:d303f914-7f33-4293-b6d4-bb34e6752c0a"/>
        <resource>
            <Observation xmlns="http://hl7.org/fhir">
                <id value="d303f914-7f33-4293-b6d4-bb34e6752c0a"/>
                <meta>
                    <profile
                        value="http://ns.electronichealth.net.au/ci/fhir/StructureDefinition/observation-otherdiag-atomic-1"
                    />
                </meta>
                <status value="final"/>
                <category>
                    <coding>
                        <system value="http://terminology.hl7.org/CodeSystem/observation-category"/>
                        <code value="imaging"/>
                    </coding>
                </category>
                <category>
                    <coding>
                        <system value="http://terminology.hl7.org/CodeSystem/v2-0074"/>
                        <code value="CUS"/>
                        <display value="Cardiac Ultrasound"/>
                    </coding>
                </category>
                <code>
                    <coding>
                        <system value="http://loinc.org"/>
                        <code value="80029-2"/>
                        <display value="LVOT Vmax systole"/>
                    </coding>
                    <text value="LVOT Vmax"/>
                </code>
                <subject>
                    <reference value="urn:uuid:995138d0-b8bc-4bd9-b49d-d2d025d39ae7"/>
                </subject>
                <effectiveDateTime value="2019-01-06T09:45:00+10:00"/>
                <performer>
                    <reference value="urn:uuid:04ac8978-bc60-4492-aa07-f62568ebe5c6"/>
                </performer>
                <valueQuantity> 
                    <value value="1.1"/> 
                    <unit value="m/s"/> 
                    <system value="http://unitsofmeasure.org"/> 
                    <code value="m/s"/> 
                </valueQuantity>
                <bodySite>
                    <coding>
                        <system value="http://snomed.info/sct"/>
                        <code value="87878005"/>
                        <display value="Left ventricular structure"/>
                    </coding>
                </bodySite>
                <method>
                    <coding>
                        <system value="http://snomed.info/sct"/>
                        <code value="278292003"/>
                        <display value="Ultrasound imaging"/>
                    </coding>
                </method>
            </Observation>
        </resource>
    </entry>
    <entry>
        <fullUrl value="urn:uuid:3b1a574a-5f1c-42f2-abd2-7581fa11c2fa"/>
        <resource>
            <Observation xmlns="http://hl7.org/fhir">
                <id value="3b1a574a-5f1c-42f2-abd2-7581fa11c2fa"/>
                <meta>
                    <profile
                        value="http://ns.electronichealth.net.au/ci/fhir/StructureDefinition/observation-otherdiag-atomic-1"
                    />
                </meta>
                <status value="final"/>
                <category>
                    <coding>
                        <system value="http://terminology.hl7.org/CodeSystem/observation-category"/>
                        <code value="imaging"/>
                    </coding>
                </category>
                <category>
                    <coding>
                        <system value="http://terminology.hl7.org/CodeSystem/v2-0074"/>
                        <code value="CUS"/>
                        <display value="Cardiac Ultrasound"/>
                    </coding>
                </category>
                <code>
                    <coding>
                        <system value="http://loinc.org"/>
                        <code value="80030-0"/>
                        <display value="LVOT Vmax systole"/>
                    </coding>
                    <text value="LVOT VTI"/>
                </code>
                <subject>
                    <reference value="urn:uuid:995138d0-b8bc-4bd9-b49d-d2d025d39ae7"/>
                </subject>
                <effectiveDateTime value="2019-01-06T09:45:00+10:00"/>
                <performer>
                    <reference value="urn:uuid:04ac8978-bc60-4492-aa07-f62568ebe5c6"/>
                </performer>
                <valueQuantity> 
                    <value value="0.217"/> 
                    <unit value="m"/> 
                    <system value="http://unitsofmeasure.org"/> 
                    <code value="m"/> 
                </valueQuantity>
                <bodySite>
                    <coding>
                        <system value="http://snomed.info/sct"/>
                        <code value="87878005"/>
                        <display value="Left ventricular structure"/>
                    </coding>
                </bodySite>
                <method>
                    <coding>
                        <system value="http://snomed.info/sct"/>
                        <code value="278292003"/>
                        <display value="Ultrasound imaging"/>
                    </coding>
                </method>
            </Observation>
        </resource>
    </entry>
    <entry>
        <fullUrl value="urn:uuid:26555e55-3a9f-4bdb-b78a-96238ee803fc"/>
        <resource>
            <Observation xmlns="http://hl7.org/fhir">
                <id value="26555e55-3a9f-4bdb-b78a-96238ee803fc"/>
                <meta>
                    <profile
                        value="http://ns.electronichealth.net.au/ci/fhir/StructureDefinition/observation-otherdiag-atomic-1"
                    />
                </meta>
                <status value="final"/>
                <category>
                    <coding>
                        <system value="http://terminology.hl7.org/CodeSystem/observation-category"/>
                        <code value="imaging"/>
                    </coding>
                </category>
                <category>
                    <coding>
                        <system value="http://terminology.hl7.org/CodeSystem/v2-0074"/>
                        <code value="CUS"/>
                        <display value="Cardiac Ultrasound"/>
                    </coding>
                </category>
                <code>
                    <coding>
                        <system value="http://loinc.org"/>
                        <code value="18018-2"/>
                        <display value="LVOT Diam US"/>
                    </coding>
                    <text value="LVOT Diam"/>
                </code>
                <subject>
                    <reference value="urn:uuid:995138d0-b8bc-4bd9-b49d-d2d025d39ae7"/>
                </subject>
                <effectiveDateTime value="2019-01-06T09:45:00+10:00"/>
                <performer>
                    <reference value="urn:uuid:04ac8978-bc60-4492-aa07-f62568ebe5c6"/>
                </performer>
                <valueQuantity> 
                    <value value="2.6"/> 
                    <unit value="cm"/> 
                    <system value="http://unitsofmeasure.org"/> 
                    <code value="cm"/> 
                </valueQuantity>
                <bodySite>
                    <coding>
                        <system value="http://snomed.info/sct"/>
                        <code value="87878005"/>
                        <display value="Left ventricular structure"/>
                    </coding>
                </bodySite>
                <method>
                    <coding>
                        <system value="http://snomed.info/sct"/>
                        <code value="278292003"/>
                        <display value="Ultrasound imaging"/>
                    </coding>
                </method>
            </Observation>
        </resource>
    </entry>
    <entry>
        <fullUrl value="urn:uuid:e43d37cb-1e12-4c82-a0ff-8d2d2b5de286"/>
        <resource>
            <Observation xmlns="http://hl7.org/fhir">
                <id value="e43d37cb-1e12-4c82-a0ff-8d2d2b5de286"/>
                <meta>
                    <profile
                        value="http://ns.electronichealth.net.au/ci/fhir/StructureDefinition/observation-otherdiag-atomic-1"
                    />
                </meta>
                <status value="final"/>
                <category>
                    <coding>
                        <system value="http://terminology.hl7.org/CodeSystem/observation-category"/>
                        <code value="imaging"/>
                    </coding>
                </category>
                <category>
                    <coding>
                        <system value="http://terminology.hl7.org/CodeSystem/v2-0074"/>
                        <code value="CUS"/>
                        <display value="Cardiac Ultrasound"/>
                    </coding>
                </category>
                <code>
                    <coding>
                        <system value="http://loinc.org"/>
                        <code value="79956-9"/>
                        <display value="AV EOA systole Continuity Vmax"/>
                    </coding>
                    <text value="AoV Area Vmax"/>
                </code>
                <subject>
                    <reference value="urn:uuid:995138d0-b8bc-4bd9-b49d-d2d025d39ae7"/>
                </subject>
                <effectiveDateTime value="2019-01-06T09:45:00+10:00"/>
                <performer>
                    <reference value="urn:uuid:04ac8978-bc60-4492-aa07-f62568ebe5c6"/>
                </performer>
                <valueQuantity> 
                    <value value="4.8"/> 
                    <unit value="cm2"/> 
                    <system value="http://unitsofmeasure.org"/> 
                    <code value="cm2"/> 
                </valueQuantity>
                <bodySite>
                    <coding>
                        <system value="http://snomed.info/sct"/>
                        <code value="34202007"/>
                        <display value="Aortic valve structure"/>
                    </coding>
                </bodySite>
                <method>
                    <coding>
                        <system value="http://snomed.info/sct"/>
                        <code value="278292003"/>
                        <display value="Ultrasound imaging"/>
                    </coding>
                </method>
            </Observation>
        </resource>
    </entry>
    <entry>
        <fullUrl value="urn:uuid:c41cc054-6640-405c-bed8-42a6a1b08cf2"/>
        <resource>
            <Observation xmlns="http://hl7.org/fhir">
                <id value="c41cc054-6640-405c-bed8-42a6a1b08cf2"/>
                <meta>
                    <profile
                        value="http://ns.electronichealth.net.au/ci/fhir/StructureDefinition/observation-otherdiag-atomic-1"
                    />
                </meta>
                <status value="final"/>
                <category>
                    <coding>
                        <system value="http://terminology.hl7.org/CodeSystem/observation-category"/>
                        <code value="imaging"/>
                    </coding>
                </category>
                <category>
                    <coding>
                        <system value="http://terminology.hl7.org/CodeSystem/v2-0074"/>
                        <code value="CUS"/>
                        <display value="Cardiac Ultrasound"/>
                    </coding>
                </category>
                <code>
                    <coding>
                        <system value="http://loinc.org"/>
                        <code value="79958-5"/>
                        <display value="AV EOA systole Continuity VTI"/>
                    </coding>
                    <text value="AoV Area VTI"/>
                </code>
                <subject>
                    <reference value="urn:uuid:995138d0-b8bc-4bd9-b49d-d2d025d39ae7"/>
                </subject>
                <effectiveDateTime value="2019-01-06T09:45:00+10:00"/>
                <performer>
                    <reference value="urn:uuid:04ac8978-bc60-4492-aa07-f62568ebe5c6"/>
                </performer>
                <valueQuantity> 
                    <value value="4.6"/> 
                    <unit value="cm2"/> 
                    <system value="http://unitsofmeasure.org"/> 
                    <code value="cm2"/> 
                </valueQuantity>
                <bodySite>
                    <coding>
                        <system value="http://snomed.info/sct"/>
                        <code value="34202007"/>
                        <display value="Aortic valve structure"/>
                    </coding>
                </bodySite>
                <method>
                    <coding>
                        <system value="http://snomed.info/sct"/>
                        <code value="278292003"/>
                        <display value="Ultrasound imaging"/>
                    </coding>
                </method>
            </Observation>
        </resource>
    </entry>
    <entry>
        <fullUrl value="urn:uuid:54adaffd-2481-4a87-8ffb-cac6b2c62b95"/>
        <resource>
            <Observation xmlns="http://hl7.org/fhir">
                <id value="54adaffd-2481-4a87-8ffb-cac6b2c62b95"/>
                <meta>
                    <profile
                        value="http://ns.electronichealth.net.au/ci/fhir/StructureDefinition/observation-otherdiag-atomic-1"
                    />
                </meta>
                <status value="final"/>
                <category>
                    <coding>
                        <system value="http://terminology.hl7.org/CodeSystem/observation-category"/>
                        <code value="imaging"/>
                    </coding>
                </category>
                <category>
                    <coding>
                        <system value="http://terminology.hl7.org/CodeSystem/v2-0074"/>
                        <code value="CUS"/>
                        <display value="Cardiac Ultrasound"/>
                    </coding>
                </category>
                <code>
                    <text value="DPI"/>
                </code>
                <subject>
                    <reference value="urn:uuid:995138d0-b8bc-4bd9-b49d-d2d025d39ae7"/>
                </subject>
                <effectiveDateTime value="2019-01-06T09:45:00+10:00"/>
                <performer>
                    <reference value="urn:uuid:04ac8978-bc60-4492-aa07-f62568ebe5c6"/>
                </performer>
                <valueQuantity> 
                    <value value="0.91"/>  
                </valueQuantity>
                <bodySite>
                    <coding>
                        <system value="http://snomed.info/sct"/>
                        <code value="34202007"/>
                        <display value="Aortic valve structure"/>
                    </coding>
                </bodySite>
                <method>
                    <coding>
                        <system value="http://snomed.info/sct"/>
                        <code value="278292003"/>
                        <display value="Ultrasound imaging"/>
                    </coding>
                </method>
            </Observation>
        </resource>
    </entry>
    <entry>
        <fullUrl value="urn:uuid:e98ecec8-862d-4574-b22a-07827dde6444"/>
        <resource>
            <Observation xmlns="http://hl7.org/fhir">
                <id value="e98ecec8-862d-4574-b22a-07827dde6444"/>
                <meta>
                    <profile
                        value="http://ns.electronichealth.net.au/ci/fhir/StructureDefinition/observation-otherdiag-atomic-1"
                    />
                </meta>
                <status value="final"/>
                <category>
                    <coding>
                        <system value="http://terminology.hl7.org/CodeSystem/observation-category"/>
                        <code value="imaging"/>
                    </coding>
                </category>
                <category>
                    <coding>
                        <system value="http://terminology.hl7.org/CodeSystem/v2-0074"/>
                        <code value="CUS"/>
                        <display value="Cardiac Ultrasound"/>
                    </coding>
                </category>
                <code>
                    <coding>
                        <system value="http://loinc.org"/>
                        <code value="11712-7"/>
                        <display value="TV Vmax sys DOP"/>
                    </coding>
                    <text value="TR Max Velocity"/>
                </code>
                <subject>
                    <reference value="urn:uuid:995138d0-b8bc-4bd9-b49d-d2d025d39ae7"/>
                </subject>
                <effectiveDateTime value="2019-01-06T09:45:00+10:00"/>
                <performer>
                    <reference value="urn:uuid:04ac8978-bc60-4492-aa07-f62568ebe5c6"/>
                </performer>
                <valueQuantity> 
                    <value value="2.2"/> 
                    <unit value="m/s"/> 
                    <system value="http://unitsofmeasure.org"/> 
                    <code value="m/s"/> 
                </valueQuantity>
                <bodySite>
                    <coding>
                        <system value="http://snomed.info/sct"/>
                        <code value="46030003"/>
                        <display value="Tricuspid valve structure"/>
                    </coding>
                </bodySite>
                <method>
                    <coding>
                        <system value="http://snomed.info/sct"/>
                        <code value="278292003"/>
                        <display value="Ultrasound imaging"/>
                    </coding>
                </method>
            </Observation>
        </resource>
    </entry>
    <entry>
        <fullUrl value="urn:uuid:3c3bbc55-bcc4-4183-9db5-4be12b83439c"/>
        <resource>
            <Observation xmlns="http://hl7.org/fhir">
                <id value="3c3bbc55-bcc4-4183-9db5-4be12b83439c"/>
                <meta>
                    <profile
                        value="http://ns.electronichealth.net.au/ci/fhir/StructureDefinition/observation-otherdiag-atomic-1"
                    />
                </meta>
                <status value="final"/>
                <category>
                    <coding>
                        <system value="http://terminology.hl7.org/CodeSystem/observation-category"/>
                        <code value="imaging"/>
                    </coding>
                </category>
                <category>
                    <coding>
                        <system value="http://terminology.hl7.org/CodeSystem/v2-0074"/>
                        <code value="CUS"/>
                        <display value="Cardiac Ultrasound"/>
                    </coding>
                </category>
                <code>
                    <coding>
                        <system value="http://loinc.org"/>
                        <code value="60998-2"/>
                        <display value="Right atrial pressure Systolic"/>
                    </coding>
                    <coding>
                        <system value="http://snomed.info/sct"/>
                        <code value="276755008"/>
                    </coding>
                    <text value="RA pressure"/>
                </code>
                <subject>
                    <reference value="urn:uuid:995138d0-b8bc-4bd9-b49d-d2d025d39ae7"/>
                </subject>
                <effectiveDateTime value="2019-01-06T09:45:00+10:00"/>
                <performer>
                    <reference value="urn:uuid:04ac8978-bc60-4492-aa07-f62568ebe5c6"/>
                </performer>
                <valueQuantity> 
                    <value value="3"/> 
                    <unit value="mmHg"/> 
                    <system value="http://unitsofmeasure.org"/> 
                    <code value="mm[Hg]"/> 
                </valueQuantity>
                <bodySite>
                    <coding>
                        <system value="http://snomed.info/sct"/>
                        <code value="73829009"/>
                        <display value="Right atrial structure"/>
                    </coding>
                </bodySite>
                <method>
                    <coding>
                        <system value="http://snomed.info/sct"/>
                        <code value="278292003"/>
                        <display value="Ultrasound imaging"/>
                    </coding>
                </method>
            </Observation>
        </resource>
    </entry>
    <entry>
        <fullUrl value="urn:uuid:8c7993d5-0eae-495c-bf01-320d496cc47a"/>
        <resource>
            <Observation xmlns="http://hl7.org/fhir">
                <id value="8c7993d5-0eae-495c-bf01-320d496cc47a"/>
                <meta>
                    <profile
                        value="http://ns.electronichealth.net.au/ci/fhir/StructureDefinition/observation-otherdiag-atomic-1"
                    />
                </meta>
                <status value="final"/>
                <category>
                    <coding>
                        <system value="http://terminology.hl7.org/CodeSystem/observation-category"/>
                        <code value="imaging"/>
                    </coding>
                </category>
                <category>
                    <coding>
                        <system value="http://terminology.hl7.org/CodeSystem/v2-0074"/>
                        <code value="CUS"/>
                        <display value="Cardiac Ultrasound"/>
                    </coding>
                </category>
                <code>
                    <coding>
                        <system value="http://snomed.info/sct"/>
                        <code value="276772001"/>
                        <display value="Right ventricular systolic pressure"/>
                    </coding>
                    <text value="RVSP/PASP"/>
                </code>
                <subject>
                    <reference value="urn:uuid:995138d0-b8bc-4bd9-b49d-d2d025d39ae7"/>
                </subject>
                <effectiveDateTime value="2019-01-06T09:45:00+10:00"/>
                <performer>
                    <reference value="urn:uuid:04ac8978-bc60-4492-aa07-f62568ebe5c6"/>
                </performer>
                <valueQuantity> 
                    <value value="23"/> 
                    <unit value="mmHg"/> 
                    <system value="http://unitsofmeasure.org"/> 
                    <code value="mm[Hg]"/> 
                </valueQuantity>
                <bodySite>
                    <coding>
                        <system value="http://snomed.info/sct"/>
                        <code value="53085002"/>
                        <display value="Right ventricular structure"/>
                    </coding>
                </bodySite>
                <method>
                    <coding>
                        <system value="http://snomed.info/sct"/>
                        <code value="278292003"/>
                        <display value="Ultrasound imaging"/>
                    </coding>
                </method>
            </Observation>
        </resource>
    </entry>
    <entry>
        <fullUrl value="urn:uuid:479157d9-d792-477d-9866-d37db7e78890"/>
        <resource>
            <Observation xmlns="http://hl7.org/fhir">
                <id value="479157d9-d792-477d-9866-d37db7e78890"/>
                <meta>
                    <profile
                        value="http://ns.electronichealth.net.au/ci/fhir/StructureDefinition/observation-otherdiag-atomic-1"
                    />
                </meta>
                <status value="final"/>
                <category>
                    <coding>
                        <system value="http://terminology.hl7.org/CodeSystem/observation-category"/>
                        <code value="imaging"/>
                    </coding>
                </category>
                <category>
                    <coding>
                        <system value="http://terminology.hl7.org/CodeSystem/v2-0074"/>
                        <code value="CUS"/>
                        <display value="Cardiac Ultrasound"/>
                    </coding>
                </category>
                <code>
                    <text value="RV S'"/>
                </code>
                <subject>
                    <reference value="urn:uuid:995138d0-b8bc-4bd9-b49d-d2d025d39ae7"/>
                </subject>
                <effectiveDateTime value="2019-01-06T09:45:00+10:00"/>
                <performer>
                    <reference value="urn:uuid:04ac8978-bc60-4492-aa07-f62568ebe5c6"/>
                </performer>
                <valueQuantity> 
                    <value value="11"/> 
                    <unit value="cm/s"/> 
                </valueQuantity>
                <bodySite>
                    <coding>
                        <system value="http://snomed.info/sct"/>
                        <code value="53085002"/>
                        <display value="Right ventricular structure"/>
                    </coding>
                </bodySite>
                <method>
                    <coding>
                        <system value="http://snomed.info/sct"/>
                        <code value="278292003"/>
                        <display value="Ultrasound imaging"/>
                    </coding>
                </method>
            </Observation>
        </resource>
    </entry>
    <entry>
        <fullUrl value="urn:uuid:5aec02f5-2aa9-4c4d-970d-a56786b6e824"/>
        <resource>
            <Observation xmlns="http://hl7.org/fhir">
                <id value="5aec02f5-2aa9-4c4d-970d-a56786b6e824"/>
                <meta>
                    <profile
                        value="http://ns.electronichealth.net.au/ci/fhir/StructureDefinition/observation-otherdiag-atomic-1"
                    />
                </meta>
                <status value="final"/>
                <category>
                    <coding>
                        <system value="http://terminology.hl7.org/CodeSystem/observation-category"/>
                        <code value="imaging"/>
                    </coding>
                </category>
                <category>
                    <coding>
                        <system value="http://terminology.hl7.org/CodeSystem/v2-0074"/>
                        <code value="CUS"/>
                        <display value="Cardiac Ultrasound"/>
                    </coding>
                </category>
                <code>
                    <coding>
                        <system value="http://loinc.org"/>
                        <code value="11710-1"/>
                        <display value="PV Peak grad DOP"/>
                    </coding>
                    <text value="Pulm valve Vmax sys DOP"/>
                </code>
                <subject>
                    <reference value="urn:uuid:995138d0-b8bc-4bd9-b49d-d2d025d39ae7"/>
                </subject>
                <effectiveDateTime value="2019-01-06T09:45:00+10:00"/>
                <performer>
                    <reference value="urn:uuid:04ac8978-bc60-4492-aa07-f62568ebe5c6"/>
                </performer>
                <valueQuantity> 
                    <value value="1.3"/> 
                    <unit value="m/s"/> 
                    <system value="http://unitsofmeasure.org"/> 
                    <code value="m/s"/> 
                </valueQuantity>
                <bodySite>
                    <coding>
                        <system value="http://snomed.info/sct"/>
                        <code value="39057004"/>
                        <display value="Pulmonary valve structure"/>
                    </coding>
                </bodySite>
                <method>
                    <coding>
                        <system value="http://snomed.info/sct"/>
                        <code value="278292003"/>
                        <display value="Ultrasound imaging"/>
                    </coding>
                    <coding>
                        <system value="http://loinc.org"/>
                        <code value="LP6617-7"/>
                        <display value="Doppler"/>
                    </coding>
                </method>
            </Observation>
        </resource>
    </entry>
    <entry>
        <fullUrl value="urn:uuid:a05caa35-3ae4-4779-968c-389538f89c7c"/>
        <resource>
            <Observation xmlns="http://hl7.org/fhir">
                <id value="a05caa35-3ae4-4779-968c-389538f89c7c"/>
                <meta>
                    <profile
                        value="http://ns.electronichealth.net.au/ci/fhir/StructureDefinition/observation-otherdiag-atomic-1"
                    />
                </meta>
                <status value="final"/>
                <category>
                    <coding>
                        <system value="http://terminology.hl7.org/CodeSystem/observation-category"/>
                        <code value="imaging"/>
                    </coding>
                </category>
                <category>
                    <coding>
                        <system value="http://terminology.hl7.org/CodeSystem/v2-0074"/>
                        <code value="CUS"/>
                        <display value="Cardiac Ultrasound"/>
                    </coding>
                </category>
                <code>
                    <coding>
                        <system value="http://loinc.org"/>
                        <code value="18058-8"/>
                        <display value="PV Peak grad DOP"/>
                    </coding>
                    <text value="PV Max velocity"/>
                </code>
                <subject>
                    <reference value="urn:uuid:995138d0-b8bc-4bd9-b49d-d2d025d39ae7"/>
                </subject>
                <effectiveDateTime value="2019-01-06T09:45:00+10:00"/>
                <performer>
                    <reference value="urn:uuid:04ac8978-bc60-4492-aa07-f62568ebe5c6"/>
                </performer>
                <valueQuantity> 
                    <value value="1.3"/> 
                    <unit value="mmHg"/> 
                    <system value="http://unitsofmeasure.org"/> 
                    <code value="mm[Hg]"/> 
                </valueQuantity>
                <bodySite>
                    <coding>
                        <system value="http://snomed.info/sct"/>
                        <code value="39057004"/>
                        <display value="Pulmonary valve structure"/>
                    </coding>
                </bodySite>
                <method>
                    <coding>
                        <system value="http://snomed.info/sct"/>
                        <code value="278292003"/>
                        <display value="Ultrasound imaging"/>
                    </coding>
                    <coding>
                        <system value="http://loinc.org"/>
                        <code value="LP6617-7"/>
                        <display value="Doppler"/>
                    </coding>
                </method>
            </Observation>
        </resource>
    </entry>
    <!--ServiceRequest referenced in DiagnosticReport.basedOn-->
    <entry>
        <fullUrl value="urn:uuid:edbc04cd-3387-435c-bda7-6e1a837b2590"/>
        <resource>
            <ServiceRequest xmlns="http://hl7.org/fhir">
                <id value="edbc04cd-3387-435c-bda7-6e1a837b2590"/>
                <status value="completed"/>
                <intent value="order"/>
                <category>
                    <coding>
                        <system value="http://snomed.info/sct"/>
                        <code value="276341003"/>
                    </coding>
                    <text value="Cardiovascular investigation"/>
                </category>
                <code>
                    <coding>
                        <system value="http://snomed.info/sct"/>
                        <code value="40701008"/>
                    </coding>
                    <text value="Echocardiography"/>
                </code>
                <subject>
                    <reference value="urn:uuid:995138d0-b8bc-4bd9-b49d-d2d025d39ae7"/>
                </subject>
                <authoredOn value="2019-01-05T00:00:00+10:00"/>
                <requester>
                    <reference value="urn:uuid:cb084861-dd87-48ff-b645-5cb620a00e8e"/>
                    <display value="Dr David George"/>
                </requester>
                <reasonCode>
                    <text value="Pre-chemotherapy"/>
                </reasonCode>
            </ServiceRequest>
        </resource>
    </entry>
    <!--Patient referenced in CDiagnosticReport.subject; ServiceRequest.subject; Observation.subject-->
    <entry>
        <fullUrl value="urn:uuid:995138d0-b8bc-4bd9-b49d-d2d025d39ae7"/>
        <resource>
            <Patient xmlns="http://hl7.org/fhir">
                <id value="995138d0-b8bc-4bd9-b49d-d2d025d39ae7"/>
                <meta>
                    <profile
                        value="http://ns.electronichealth.net.au/ci/fhir/StructureDefinition/patient-ident-1"
                    />
                </meta>
                <extension url="http://hl7.org/fhir/StructureDefinition/patient-birthPlace">
                    <valueAddress>
                        <text value="China"/>
                        <country value="CHN"/>
                    </valueAddress>
                </extension>
                <extension url="http://hl7.org.au/fhir/StructureDefinition/indigenous-status">
                    <valueCoding>
                        <system
                            value="https://healthterminologies.gov.au/fhir/CodeSystem/australian-indigenous-status-1"/>
                        <code value="4"/>
                        <display value="Neither Aboriginal nor Torres Strait Islander origin"/>
                    </valueCoding>
                </extension>
                <extension url="http://hl7.org/fhir/StructureDefinition/patient-interpreterRequired">
                    <valueBoolean value="true"/>
                </extension>
                <extension url="http://hl7.org.au/fhir/StructureDefinition/date-of-arrival">
                    <valueDate value="2017"/>
                </extension>
                <identifier>
                    <extension url="http://hl7.org.au/fhir/StructureDefinition/ihi-status">
                        <valueCoding>
                            <system
                                value="https://healthterminologies.gov.au/fhir/CodeSystem/ihi-status-1"/>
                            <code value="active"/>
                        </valueCoding>
                    </extension>
                    <extension url="http://hl7.org.au/fhir/StructureDefinition/ihi-record-status">
                        <valueCoding>
                            <system
                                value="https://healthterminologies.gov.au/fhir/CodeSystem/ihi-record-status-1"/>
                            <code value="verified"/>
                            <display value="verified"/>
                        </valueCoding>
                    </extension>
                    <type>
                        <coding>
                            <system value="http://terminology.hl7.org/CodeSystem/v2-0203"/>
                            <code value="NI"/>
                        </coding>
                        <text value="IHI"/>
                    </type>
                    <system value="http://ns.electronichealth.net.au/id/hi/ihi/1.0"/>
                    <value value="8003608000228437"/>
                </identifier>
                <identifier>
                    <type>
                        <coding>
                            <system value="http://terminology.hl7.org/CodeSystem/v2-0203"/>
                            <code value="MC"/>
                        </coding>
                        <text value="Medicare Number"/>
                    </type>
                    <system value="http://ns.electronichealth.net.au/id/medicare-number"/>
                    <value value="29533070311"/>
                </identifier>
                <identifier>
                    <type>
                        <coding>
                            <system value="http://terminology.hl7.org/CodeSystem/v2-0203"/>
                            <code value="MR"/>
                            <display value="Medical record number"/>
                        </coding>
                        <text value="Medical Record Number"/>
                    </type>
                    <system
                        value="http://ns.electronichealth.net.au/id/hpio-scoped/medicalrecord/1.0/8003626566699734"/>
                    <value value="2338172"/>
                    <assigner>
                        <display value="NSW Hospital"/>
                    </assigner>
                </identifier>
                <name>
                    <family value="Zhang"/>
                    <given value="Wei"/>
                    <prefix value="Mr"/>
                </name>
                <gender value="male"/>
                <birthDate value="1969-05-03">
                    <extension
                        url="http://hl7.org.au/fhir/StructureDefinition/date-accuracy-indicator">
                        <valueCoding>
                            <system
                                value="https://healthterminologies.gov.au/fhir/CodeSystem/date-accuracy-indicator-1"/>
                            <code value="AAA"/>
                            <display value="Day, month and year are accurate"/>
                        </valueCoding>
                    </extension>
                </birthDate>
                <address>
                    <use value="home"/>
                    <line value="6 Macquarie Street"/>
                    <city value="Sydney"/>
                    <state value="NSW"/>
                    <postalCode value="2000"/>
                </address>
                <communication>
                    <language>
                        <coding>
                            <system value="urn:ietf:bcp:47"/>
                            <code value="yue"/>
                        </coding>
                        <text value="Cantonese"/>
                    </language>
                    <preferred value="true"/>
                </communication>
            </Patient>
        </resource>
    </entry>
    <!--PractitionerRole (46d552b7-88a9-427b-9d62-8b0727de91f9) referenced in Composition.author; Composition.attester.party; DiagnosticReport.performer;-->
    <entry>
        <fullUrl value="urn:uuid:46d552b7-88a9-427b-9d62-8b0727de91f9"/>
        <resource>
            <PractitionerRole xmlns="http://hl7.org/fhir">
                <id value="46d552b7-88a9-427b-9d62-8b0727de91f9"/>
                <identifier>
                    <type>
                        <coding>
                            <system value="http://terminology.hl7.org/CodeSystem/v2-0203"/>
                            <code value="NPI"/>
                            <display value="National provider identifier"/>
                        </coding>
                        <text value="HPI-I"/>
                    </type>
                    <system value="http://ns.electronichealth.net.au/id/hi/hpii/1.0"/>
                    <value value="8003608833357361"/>
                </identifier>
                <identifier>
                    <type>
                        <coding>
                            <system value="http://terminology.hl7.org/CodeSystem/v2-0203"/>
                            <code value="EI"/>
                            <display value="Employee number"/>
                        </coding>
                        <text value="Employee Number"/>
                    </type>
                    <!--Invalid ABN format that passes profile validation used as the fictitious ABN to avoid introducing ambiguity with real world organisations-->
                    <system
                        value="http://ns.electronichealth.net.au/id/abn-scoped/service-provider-individual/1.0/41824753557"/>
                    <value value="NSW31u32-441"/>
                    <assigner>
                        <display value="NSW Hospital"/>
                    </assigner>
                </identifier>
                <practitioner>
                    <reference value="urn:uuid:d68312c9-b122-4fe5-8e3c-f550bd989f4b"/>
                    <display value="Dr Fredrika Bremer"/>
                </practitioner>
                <organization>
                    <reference value="urn:uuid:676a30d5-9c94-4c4d-8b52-e7cce26defed"/>
                    <display value="NSW Hospital - Cardiology"/>
                </organization>
                <code>
                    <coding>
                        <system value="http://snomed.info/sct"/>
                        <code value="17561000"/>
                        <display value="Cardiologist"/>
                    </coding>
                    <text value="Cardiologist"/>
                </code>
            </PractitionerRole>
        </resource>
    </entry>
    <!--Practitioner referenced in PractitionerRole (46d552b7-88a9-427b-9d62-8b0727de91f9)-->
    <entry>
        <fullUrl value="urn:uuid:d68312c9-b122-4fe5-8e3c-f550bd989f4b"/>
        <resource>
            <Practitioner xmlns="http://hl7.org/fhir">
                <id value="d68312c9-b122-4fe5-8e3c-f550bd989f4b"/>
                <name>
                    <use value="usual"/>
                    <family value="Bremer"/>
                    <given value="Fredrika"/>
                    <prefix value="Dr."/>
                </name>
                <telecom>
                    <system value="phone"/>
                    <value value="(02) 5550 4111"/>
                    <use value="work"/>
                </telecom>
            </Practitioner>
        </resource>
    </entry>
    <!--PractitionerRole (04ac8978-bc60-4492-aa07-f62568ebe5c6) referenced in DiagnosticReport.performer-->
    <entry>
        <fullUrl value="urn:uuid:04ac8978-bc60-4492-aa07-f62568ebe5c6"/>
        <resource>
            <PractitionerRole xmlns="http://hl7.org/fhir">
                <id value="04ac8978-bc60-4492-aa07-f62568ebe5c6"/>
                <identifier>
                    <type>
                        <coding>
                            <system value="http://terminology.hl7.org/CodeSystem/v2-0203"/>
                            <code value="NPI"/>
                            <display value="National provider identifier"/>
                        </coding>
                        <text value="HPI-I"/>
                    </type>
                    <system value="http://ns.electronichealth.net.au/id/hi/hpii/1.0"/>
                    <value value="8003608166895854"/>
                </identifier>
                <identifier>
                    <type>
                        <coding>
                            <system value="http://terminology.hl7.org/CodeSystem/v2-0203"/>
                            <code value="EI"/>
                            <display value="Employee number"/>
                        </coding>
                        <text value="Employee Number"/>
                    </type>
                    <!--Invalid ABN format that passes profile validation used as the fictitious ABN to avoid introducing ambiguity with real world organisations-->
                    <system
                        value="http://ns.electronichealth.net.au/id/abn-scoped/service-provider-individual/1.0/41824753557"/>
                    <value value="NSW31u32-401"/>
                    <assigner>
                        <display value="NSW Hospital"/>
                    </assigner>
                </identifier>
                <practitioner>
                    <reference value="urn:uuid:e6de10ad-8dba-4250-8399-311da99e8c30"/>
                    <display value="Ms Linda Howard"/>
                </practitioner>
                <organization>
                    <reference value="urn:uuid:676a30d5-9c94-4c4d-8b52-e7cce26defed"/>
                    <display value="NSW Hospital - Cardiology"/>
                </organization>
                <code>
                    <coding>
                        <system value="http://snomed.info/sct"/>
                        <code value="1012861000168100"/>
                        <display value="Sonographer"/>
                    </coding>
                    <text value="Sonographer"/>
                </code>
            </PractitionerRole>
        </resource>
    </entry>
    <!--Practitioner referenced in PractitionerRole (04ac8978-bc60-4492-aa07-f62568ebe5c6)-->
    <entry>
        <fullUrl value="urn:uuid:e6de10ad-8dba-4250-8399-311da99e8c30"/>
        <resource>
            <Practitioner xmlns="http://hl7.org/fhir">
                <id value="e6de10ad-8dba-4250-8399-311da99e8c30"/>
                <name>
                    <use value="usual"/>
                    <family value="Bremer"/>
                    <given value="Fredrika"/>
                    <prefix value="Dr."/>
                </name>
                <telecom>
                    <system value="phone"/>
                    <value value="(02) 5550 4111"/>
                    <use value="work"/>
                </telecom>
            </Practitioner>
        </resource>
    </entry>
    <!--Organization referenced in Composition.custodian; PractitionerRole (04ac8978-bc60-4492-aa07-f62568ebe5c6); PractitionerRole (46d552b7-88a9-427b-9d62-8b0727de91f9)-->
    <entry>
        <fullUrl value="urn:uuid:676a30d5-9c94-4c4d-8b52-e7cce26defed"/>
        <resource>
            <Organization xmlns="http://hl7.org/fhir">
                <id value="676a30d5-9c94-4c4d-8b52-e7cce26defed"/>
                <meta>
                    <lastUpdated value="2020-05-12T00:00:00.000+10:00"/>
                </meta>
                <!--Invalid ABN format that passes profile validation used as the fictitious ABN to avoid introducing ambiguity with real world organisations-->
                <identifier>
                    <type>
                        <text value="ABN"/>
                    </type>
                    <system value="http://hl7.org.au/id/abn"/>
                    <value value="41824753557"/>
                </identifier>
                <identifier>
                    <type>
                        <coding>
                            <system value="http://terminology.hl7.org.au/CodeSystem/v2-0203"/>
                            <code value="NOI"/>
                        </coding>
                        <text value="HPI-O"/>
                    </type>
                    <system value="http://ns.electronichealth.net.au/id/hi/hpio/1.0"/>
                    <value value="8003626566699734"/>
                </identifier>
                <type>
                    <coding>
                        <system value="http://snomed.info/sct"/>
                        <code value="22232009"/>
                    </coding>
                    <coding>
                        <system value="http://terminology.hl7.org/CodeSystem/v3-RoleCode"/>
                        <code value="HOSP"/>
                    </coding>
                    <text value="Hospital"/>
                </type>
                <name value="NSW Hospital"/>
                <telecom>
                    <system value="url"/>
                    <value value="https://www.health.nsw.example.org/nsw-hospital"/>
                </telecom>
                <telecom>
                    <system value="phone"/>
                    <value value="(02) 5550 4444"/>
                </telecom>
                <address>
                    <type value="physical"/>
                    <text value="2325 Rocklands Rd, North Sydney NSW 2060"/>
                    <line value="2325 Rocklands Rd"/>
                    <city value="South Brisbane"/>
                    <state value="QLD"/>
                    <postalCode value="4101"/>
                    <country value="AU"/>
                </address>
            </Organization>
        </resource>
    </entry>
    <!--PractitionerRole referenced in ServiceRequest.requester-->
    <entry>
        <fullUrl value="urn:uuid:cb084861-dd87-48ff-b645-5cb620a00e8e"/>
        <resource>
            <PractitionerRole xmlns="http://hl7.org/fhir">
                <id value="cb084861-dd87-48ff-b645-5cb620a00e8e"/>
                <identifier>
                    <type>
                        <coding>
                            <system value="http://terminology.hl7.org/CodeSystem/v2-0203"/>
                            <code value="EI"/>
                            <display value="Employee number"/>
                        </coding>
                        <text value="Employee Number"/>
                    </type>
                    <system value="http://www.health.nsw.example.org/nsw-hospital/fred-hope"/>
                    <value value="123113"/>
                    <assigner>
                        <display value="Fred Hope Cancer Centre"/>
                    </assigner>
                </identifier>
                <identifier>
                    <type>
                        <coding>
                            <system value="http://terminology.hl7.org/CodeSystem/v2-0203"/>
                            <code value="NPI"/>
                            <display value="National provider identifier"/>
                        </coding>
                        <text value="HPI-I"/>
                    </type>
                    <system value="http://ns.electronichealth.net.au/id/hi/hpii/1.0"/>
                    <value value="8003608833564727"/>
                </identifier>
                <practitioner>
                    <display value="Dr David George"/>
                </practitioner>
                <organization>
                    <display value="Fred Hope Cancer Centre"/>
                </organization>
                <code>
                    <coding>
                        <system value="http://snomed.info/sct"/>
                        <code value="309295000"/>
                    </coding>
                    <text value="Oncologist"/>
                </code>
            </PractitionerRole>
        </resource>
    </entry>
</Bundle>
