<?xml version="1.0" encoding="UTF-8"?>
<Bundle xmlns="http://hl7.org/fhir">
    <id value="ncspv-doc-01"/>
    <!--Bundle for 'data out' from MHR to CIS -->
    <meta>
        <lastUpdated value="2022-02-15T07:15:15+10:00"/>
        <profile value="http://ns.electronichealth.net.au/fhir/StructureDefinition/dh-bundle-document-1"/>
    </meta>
    <identifier>
        <system value="urn:ietf:rfc:3986"/>
        <value value="urn:uuid:72a83ef2-089a-48e3-a712-1f921f0180ab"/>
    </identifier>
    <type value="document"/>
    <timestamp value="2022-02-15T07:15:15+10:00"/>
    <!--    COMPOSITION    -->
    <entry>
        <fullUrl value="urn:uuid:6aefb248-c5f9-4a8b-9b81-f89a8fd59e53"/>
        <resource>
            <Composition xmlns="http://hl7.org/fhir">
                <id value="ncspv-01"/>
                <meta>
                    <profile
                        value="http://ns.electronichealth.net.au/fhir/StructureDefinition/dh-composition-document-1"
                    />
                </meta>
                <language value="en-AU"/>
                <!--Workaround to trigger IG Publisher generated narrative -->
                <text>
                    <status value="generated"/>
                    <div xmlns="http://www.w3.org/1999/xhtml" xml:lang="en-AU" lang="en-AU">
                        <h1>National Cancer Screening Register Program View</h1>
                        <h3>15 FEB 2022 | 07:15 AM | My Health Record</h3>
                        <p><b>View metadata</b>: id: urn:uuid:2a33925c-dc2c-4b5d-a7b1-ac94a0e880a7  <b>status</b>: final</p>
                    </div>
                </text>
                <identifier>
                    <system value="urn:ietf:rfc:3986"/>
                    <value value="urn:uuid:2a33925c-dc2c-4b5d-a7b1-ac94a0e880a7"/>
                </identifier>
                <status value="final"/>
                <type>
                    <coding>
                        <system
                            value="https://healthterminologies.gov.au/fhir/CodeSystem/nctis-data-components-1"/>
                        <code value="100.32040"/>
                        <display value="National Cancer Screening Program Participation View"/>
                    </coding>
                </type>
                <category>
                    <coding>
                        <system
                            value="https://healthterminologies.gov.au/fhir/CodeSystem/nctis-data-components-1"/>
                        <code value="100.32039"/>
                        <display value="Disease Screening Program Participation Record"/>
                    </coding>
                </category>
                <subject>
                    <reference value="urn:uuid:82478850-5a44-4efe-90a6-d7345aa0053f"/>
                    <identifier>
                        <type>
                            <coding>
                                <system value="http://terminology.hl7.org/CodeSystem/v2-0203"/>
                                <code value="NI"/>
                                <display value="National unique individual identifier"/>
                            </coding>
                            <text value="IHI"/>
                        </type>
                        <system value="http://ns.electronichealth.net.au/id/hi/ihi/1.0"/>
                        <value value="8003608833564735"/>
                    </identifier>
                </subject>
                <date value="2022-02-15T07:15:15+10:00"/>
                <author>
                    <reference value="urn:uuid:7de5f248-4884-4c00-98da-d972b324b6d5"/>
                    <identifier>
                        <type>
                            <coding>
                                <system value="http://terminology.hl7.org.au/CodeSystem/v2-0203"/>
                                <code value="NDI"/>
                                <display value="National Device Identifier"/>
                            </coding>
                            <text value="PAI-D"/>
                        </type>
                        <system value="http://ns.electronichealth.net.au/id/pcehr/paid/1.0"/>
                        <value value="8003640003000026"/>
                    </identifier>
                </author>
                <title value="National Cancer Screening Register Program View"/>
                <custodian>
                    <reference value="urn:uuid:955a9dc6-6c36-46ea-977d-f82eb4351321"/>
                    <identifier>
                        <type>
                            <coding>
                                <system value="http://terminology.hl7.org.au/CodeSystem/v2-0203"/>
                                <code value="NOI"/>
                                <display value="National Organisation Identifier"/>
                            </coding>
                            <text value="PAI-O"/>
                        </type>
                        <system value="http://ns.electronichealth.net.au/id/pcehr/paio/1.0"/>
                        <value value="8003640001000036"/>
                    </identifier>
                </custodian>
                <section>
                    <title value="Health Program Information"/>
                    <code>
                        <coding>
                            <system
                                value="https://healthterminologies.gov.au/fhir/CodeSystem/nctis-data-components-1"/>
                            <code value="101.32046"/>
                            <display value="Health Program Information"/>
                        </coding>
                    </code>
                    <text>
                        <status value="generated"/>
                        <div xmlns="http://www.w3.org/1999/xhtml">
                            <table style="border-collapse:collapse;border-spacing:0;width:100%;">
                                <caption>National Bowel Cancer Screening Program Participation</caption>
                                <tr>
                                    <th style="border-collapse:collapse;border-spacing:0;font-family:Arial, sans-serif;font-size:14px;font-weight:normal;padding:10px 5px;border-style:solid;border-width:1px;overflow:hidden;word-break:normal;border-color:black;font-weight:bold;background-color:#9b9b9b;border-color:#000000;text-align:left;vertical-align:top"
                                        >Participant Status</th>
                                    <th style="border-collapse:collapse;border-spacing:0;font-family:Arial, sans-serif;font-size:14px;font-weight:normal;padding:10px 5px;border-style:solid;border-width:1px;overflow:hidden;word-break:normal;border-color:black;font-weight:bold;background-color:#9b9b9b;border-color:#000000;text-align:left;vertical-align:top"
                                        >Participant Status Period</th>
                                    <th style="border-collapse:collapse;border-spacing:0;font-family:Arial, sans-serif;font-size:14px;font-weight:normal;padding:10px 5px;border-style:solid;border-width:1px;overflow:hidden;word-break:normal;border-color:black;font-weight:bold;background-color:#9b9b9b;border-color:#000000;text-align:left;vertical-align:top"
                                        >Defer flag</th>
                                    <th style="border-collapse:collapse;border-spacing:0;font-family:Arial, sans-serif;font-size:14px;font-weight:normal;padding:10px 5px;border-style:solid;border-width:1px;overflow:hidden;word-break:normal;border-color:black;font-weight:bold;background-color:#9b9b9b;border-color:#000000;text-align:left;vertical-align:top"
                                        >Next Action</th>
                                </tr>
                                <tr>
                                    <td style="border-collapse:collapse;border-spacing:0;font-family:Arial, sans-serif;font-size:14px;padding:10px 5px;border-style:solid;border-width:1px;overflow:hidden;word-break:normal;border-color:black;border-color:#000000;text-align:left;vertical-align:top"
                                        >Excluded</td>
                                    <td style="border-collapse:collapse;border-spacing:0;font-family:Arial, sans-serif;font-size:14px;padding:10px 5px;border-style:solid;border-width:1px;overflow:hidden;word-break:normal;border-color:black;border-color:#000000;text-align:left;vertical-align:top"
                                        >21 JULY 2021</td>
                                    <td style="border-collapse:collapse;border-spacing:0;font-family:Arial, sans-serif;font-size:14px;padding:10px 5px;border-style:solid;border-width:1px;overflow:hidden;word-break:normal;border-color:black;border-color:#000000;text-align:left;vertical-align:top"
                                        >No</td>
                                    <td style="border-collapse:collapse;border-spacing:0;font-family:Arial, sans-serif;font-size:14px;padding:10px 5px;border-style:solid;border-width:1px;overflow:hidden;word-break:normal;border-color:black;border-color:#000000;text-align:left;vertical-align:top"
                                        >Inactive</td>
                                </tr>
                            </table>
                            <table style="border-collapse:collapse;border-spacing:0;width:100%;">
                                <caption>National Bowel Cancer Screening Program Participation</caption>
                                <tr>
                                    <th style="border-collapse:collapse;border-spacing:0;font-family:Arial, sans-serif;font-size:14px;font-weight:normal;padding:10px 5px;border-style:solid;border-width:1px;overflow:hidden;word-break:normal;border-color:black;font-weight:bold;background-color:#9b9b9b;border-color:#000000;text-align:left;vertical-align:top"
                                        >Participant Status</th>
                                    <th style="border-collapse:collapse;border-spacing:0;font-family:Arial, sans-serif;font-size:14px;font-weight:normal;padding:10px 5px;border-style:solid;border-width:1px;overflow:hidden;word-break:normal;border-color:black;font-weight:bold;background-color:#9b9b9b;border-color:#000000;text-align:left;vertical-align:top"
                                        >Participant Status Period</th>
                                    <th style="border-collapse:collapse;border-spacing:0;font-family:Arial, sans-serif;font-size:14px;font-weight:normal;padding:10px 5px;border-style:solid;border-width:1px;overflow:hidden;word-break:normal;border-color:black;font-weight:bold;background-color:#9b9b9b;border-color:#000000;text-align:left;vertical-align:top"
                                        >Defer flag</th>
                                    <th style="border-collapse:collapse;border-spacing:0;font-family:Arial, sans-serif;font-size:14px;font-weight:normal;padding:10px 5px;border-style:solid;border-width:1px;overflow:hidden;word-break:normal;border-color:black;font-weight:bold;background-color:#9b9b9b;border-color:#000000;text-align:left;vertical-align:top"
                                        >Next Action Date</th>
                                </tr>
                                <tr>
                                    <td style="border-collapse:collapse;border-spacing:0;font-family:Arial, sans-serif;font-size:14px;padding:10px 5px;border-style:solid;border-width:1px;overflow:hidden;word-break:normal;border-color:black;border-color:#000000;text-align:left;vertical-align:top"
                                        >Actively Screening</td>
                                    <td style="border-collapse:collapse;border-spacing:0;font-family:Arial, sans-serif;font-size:14px;padding:10px 5px;border-style:solid;border-width:1px;overflow:hidden;word-break:normal;border-color:black;border-color:#000000;text-align:left;vertical-align:top"
                                        >22 MAY 2021</td>
                                    <td style="border-collapse:collapse;border-spacing:0;font-family:Arial, sans-serif;font-size:14px;padding:10px 5px;border-style:solid;border-width:1px;overflow:hidden;word-break:normal;border-color:black;border-color:#000000;text-align:left;vertical-align:top"
                                        >No</td>
                                    <td style="border-collapse:collapse;border-spacing:0;font-family:Arial, sans-serif;font-size:14px;padding:10px 5px;border-style:solid;border-width:1px;overflow:hidden;word-break:normal;border-color:black;border-color:#000000;text-align:left;vertical-align:top"
                                        >22 MAY 2022</td>
                                </tr>
                            </table>
                        </div>
                    </text>
                    <entry>
                        <reference value="urn:uuid:fa8210b7-fc7c-4104-b372-80c2a3e60b5f"/>
                    </entry>
                    <entry>
                        <reference value="urn:uuid:9b777998-dc27-42fb-a046-f2b115e141be"/>
                    </entry>
                </section>
            </Composition>
        </resource>
    </entry>
    <!--    PATIENT    -->
    <entry>
        <fullUrl value="urn:uuid:82478850-5a44-4efe-90a6-d7345aa0053f"/>
        <resource>
            <Patient xmlns="http://hl7.org/fhir">
                <id value="hi-testdata-moss-cleo"/>
                <text>
                    <status value="extensions"/>
                    <div xmlns="http://www.w3.org/1999/xhtml">
                        <h2>Cleo Moss Esq.</h2>
                        <table>
                            <tr>
                                <td>Indigenous Status</td>
                                <td>Neither Aboriginal nor Torres Strait Islander origin</td>
                            </tr>
                            <tr>
                                <td>IHI</td>
                                <td>8003608833564735</td>
                            </tr>
                            <tr>
                                <td>Email</td>
                                <td>moss@gmail.com</td>
                            </tr>
                            <tr>
                                <td>Gender</td>
                                <td>Female</td>
                            </tr>
                            <tr>
                                <td>Date of Birth</td>
                                <td>23 August 1965</td>
                            </tr>
                            <tr>
                                <td>Address</td>
                                <td>138 Gateway Ct, CALDER, TAS, 7325</td>
                            </tr>
                        </table>
                    </div>
                </text> 
                <extension url="http://hl7.org.au/fhir/StructureDefinition/indigenous-status">
                    <valueCoding>
                        <system value="https://healthterminologies.gov.au/fhir/CodeSystem/australian-indigenous-status-1"/>
                        <code value="4"/>
                        <display value="Neither Aboriginal nor Torres Strait Islander origin"/>
                    </valueCoding>
                </extension>
                <identifier>
                    <type>
                        <coding>
                            <system value="http://terminology.hl7.org/CodeSystem/v2-0203"/>
                            <code value="NI"/>
                            <display value="National unique individual identifier"/>
                        </coding>
                        <text value="IHI"/>
                    </type>
                    <system value="http://ns.electronichealth.net.au/id/hi/ihi/1.0"/>
                    <value value="8003608833564735"/>
                </identifier>
                <name>
                    <family value="Moss"/>
                    <given value="Cleo"/>
                    <suffix value="Esq."/>        
                </name>
                <telecom>
                    <system value="email"/>
                    <value value="moss@gmail.com"/>
                </telecom>
                <gender value="female"/>
                <birthDate value="1965-08-23"/>
                <address>
                    <use value="home"/>
                    <text value="138 Gateway Ct, CALDER, TAS, 7325"/>
                </address>
            </Patient>
        </resource>
    </entry>
    <!--    DEVICE MHR   -->
    <entry>
        <fullUrl value="urn:uuid:7de5f248-4884-4c00-98da-d972b324b6d5"/>
        <resource>
            <Device xmlns="http://hl7.org/fhir">
                <id value="mhr-01"/>
                <identifier>
                    <type>
                        <coding>
                            <system value="http://terminology.hl7.org.au/CodeSystem/v2-0203"/>
                            <code value="NDI"/>
                            <display value="National Device Identifier"/>
                        </coding>
                        <text value="PAI-D"/>
                    </type>
                    <system value="http://ns.electronichealth.net.au/id/pcehr/paid/1.0"/>
                    <value value="8003640003000026"/>
                </identifier>
                <deviceName>
                    <name value="My Health Record system"/>
                    <type value="other"/>
                </deviceName>
                <type>
                    <coding>
                        <system value="http://snomed.info/sct"/>
                        <code value="1084991000168108"/>
                        <display value="My Health Record system"/>
                    </coding>
                    <text value="My Health Record system"/>
                </type>
                <owner>
                    <reference value="urn:uuid:955a9dc6-6c36-46ea-977d-f82eb4351321"/>
                </owner>
            </Device>
        </resource>
    </entry>
    <!--    ORGANIZATION MHR   -->
    <entry>
        <fullUrl value="urn:uuid:955a9dc6-6c36-46ea-977d-f82eb4351321"/>
        <resource>
            <Organization xmlns="http://hl7.org/fhir">
                <id value="mhr-operator"/>
                <identifier>
                    <type>
                        <coding>
                            <system value="http://terminology.hl7.org.au/CodeSystem/v2-0203"/>
                            <code value="NOI"/>
                            <display value="National Organisation Identifier"/>
                        </coding>
                        <text value="PAI-O"/>
                    </type>
                    <system value="http://ns.electronichealth.net.au/id/pcehr/paio/1.0"/>
                    <value value="8003640001000036"/>
                </identifier>
                <name value="My Health Record system operator"/>
            </Organization>
        </resource>
    </entry>
    <!--    ORGANIZATION NCSR   -->
    <entry>
        <fullUrl value="urn:uuid:19f63304-d81a-4acb-918a-4eeb39f3261f"/>
        <resource>
            <Organization xmlns="http://hl7.org/fhir">
                <id value="ncsr-operator"/>
                <identifier>
                    <type>
                        <coding>
                            <system value="http://terminology.hl7.org.au/CodeSystem/v2-0203"/>
                            <code value="NOI"/>
                            <display value="National Organisation Identifier"/>
                        </coding>
                        <text value="PAI-O"/>
                    </type>
                    <system value="http://ns.electronichealth.net.au/id/pcehr/paio/1.0"/>
                    <value value="TBD"/>
                </identifier>
                <name value="National Cancer Screening Register system operator"/>
                <partOf>
                    <reference value="urn:uuid:181b9859-c7ec-4dbc-8006-3427a7eb5218"/>
                </partOf>
            </Organization>
        </resource>
    </entry>
    <!--    ORGANIZATION Services Australia   -->
    <entry>
        <fullUrl value="urn:uuid:181b9859-c7ec-4dbc-8006-3427a7eb5218"/>
        <resource>
            <Organization xmlns="http://hl7.org/fhir">
                <id value="servicesau"/>
                <identifier>
                    <type>
                        <coding>
                            <system value="http://terminology.hl7.org/CodeSystem/v2-0203"/>
                            <code value="XX"/>
                        </coding>
                        <text value="ABN"/>
                    </type>
                    <system value="http://hl7.org.au/id/abn"/>
                    <value value="90794605008"/>
                </identifier>
                <type>
                    <text value="Commonwealth Government Entity"/>
                </type>
                <name value="Services Australia"/>
                <telecom>
                    <system value="url"/>
                    <value value="https://www.servicesaustralia.gov.au/"/>
                    <use value="work"/> 
                </telecom>
            </Organization>
        </resource>
    </entry>
    <!--    OBSERVATION -->
    <entry>
        <fullUrl value="urn:uuid:9b777998-dc27-42fb-a046-f2b115e141be"/>
        <resource>
            <Observation xmlns="http://hl7.org/fhir">
                <id value="ncsp-01"/>
                <!--Scenario: Active screening, next action in 1 year (2021)
    Scenario Description: NCSR receives a Cervical result for participant on 22 May 2021. 
    Status updates to Actively Screening, and their next due date is in 1 year due to the risk category of that participant. -->
                <!--update to id from pcehr doc registration?-->
                <identifier>
                    <system value="urn:ietf:rfc:4122"/>
                    <value value="28c02479-27ed-4d95-957b-d6703c2bcc97"/>
                </identifier>
                <status value="final"/>
                <category>
                    <coding>
                        <system value="http://terminology.hl7.org.au/CodeSystem/observation-category"/>
                        <code value="program"/>
                        <display value="Program"/>
                    </coding>
                    <text value="Cancer screening program"/>
                </category>
                <code>
                    <coding>
                        <system value="http://snomed.info/sct"/>
                        <code value="1602101000168102"/>
                        <display value="National cervical cancer screening program participation"/>
                    </coding>
                    <text value="National Cervical Cancer Screening Program Participation"/>
                </code>
                <subject>
                    <reference value="urn:uuid:82478850-5a44-4efe-90a6-d7345aa0053f"/>
                    <identifier>
                        <type>
                            <coding>
                                <system value="http://terminology.hl7.org/CodeSystem/v2-0203"/>
                                <code value="NI"/>
                                <display value="National unique individual identifier"/>
                            </coding>
                            <text value="IHI"/>
                        </type>
                        <system value="http://ns.electronichealth.net.au/id/hi/ihi/1.0"/>
                        <value value="8003608833564735"/>
                    </identifier>
                </subject>
                <!--Records date this program participation information is asserted as 'true' -->
                <effectiveDateTime value="2021-05-22T10:01:00+10:00"/>
                <performer>
                    <reference value="urn:uuid:19f63304-d81a-4acb-918a-4eeb39f3261f"/>
                    <identifier>
                        <type>
                            <coding>
                                <system value="http://terminology.hl7.org.au/CodeSystem/v2-0203"/>
                                <code value="NOI"/>
                                <display value="National Organisation Identifier"/>
                            </coding>
                            <text value="PAI-O"/>
                        </type>
                        <system value="http://ns.electronichealth.net.au/id/pcehr/paio/1.0"/>
                        <value value="TBD"/>
                    </identifier>
                </performer>
                <!--1.	Program participation status -->
                <component>
                    <code>
                        <coding>
                            <system value="http://snomed.info/sct"/>
                            <code value="1603781000168102"/>
                            <display value="Program participation status"/>
                        </coding>
                        <text value="Participant status"/>
                    </code>
                    <valueCodeableConcept>
                        <coding>
                            <system value="http://snomed.info/sct"/>
                            <code value="1602001000168101"/>
                            <display value="Active participation"/>
                        </coding>
                        <text value="Actively screening"/>
                    </valueCodeableConcept>
                </component>
                <!--2.	Program participation status validity period -->
                <component>
                    <code>
                        <coding>
                            <system value="http://snomed.info/sct"/>
                            <code value="1603791000168104"/>
                            <display value="Program participation status period"/>
                        </coding>
                        <text value="Participant status period"/>
                    </code>
                    <valuePeriod>
                        <start value="2021-05-22"/>
                    </valuePeriod>
                </component>
                <!--3.	Suspension of program participation -->
                <component>
                    <code>
                        <coding>
                            <system value="http://snomed.info/sct"/>
                            <code value="1603871000168108"/>
                            <display value="Program participation suspension indicator"/>
                        </coding>
                        <text value="Defer flag"/>
                    </code>
                    <!--Patient has not deferred-->
                    <valueBoolean value="false"/>
                </component>
                <!--13. Forecast status is not provided in this scenario-->
                <!--14.	Forecast status validity period -->
                <component>
                    <code>
                        <coding>
                            <system value="http://snomed.info/sct"/>
                            <code value="1604051000168109"/>
                            <display value="Program forecast status period"/>
                        </coding>
                        <text value="Next screening action date"/>
                    </code>
                    <!--Next screening date for patient is in 1 year -->
                    <valuePeriod>
                        <start value="2022-05-22"/>
                    </valuePeriod>
                </component>
            </Observation>
        </resource>
    </entry>
    <!--    OBSERVATION    -->
    <entry>
        <fullUrl value="urn:uuid:fa8210b7-fc7c-4104-b372-80c2a3e60b5f"/>
        <resource>
            <Observation xmlns="http://hl7.org/fhir">
                <id value="nbcsp-03"/>
                <!--Scenario: Active screening, next due in 2 years (2021)
    Scenario Description: NCSR receives a negative FOBT result for participant. Status updates to Actively Screening, and their next due date is in 2 years  -->
                <!--update to id from pcehr doc registration?-->
                <identifier>
                    <system value="urn:ietf:rfc:4122"/>
                    <value value="4732293f-40e4-45a3-81b5-9cc2ae8b2f38"/>
                </identifier>
                <status value="final"/>
                <category>
                    <coding>
                        <system value="http://terminology.hl7.org.au/CodeSystem/observation-category"/>
                        <code value="program"/>
                        <display value="Program"/>
                    </coding>
                    <text value="Cancer screening program"/>
                </category>
                <code>
                    <coding>
                        <system value="http://snomed.info/sct"/>
                        <code value="1602081000168109"/>
                        <display value="National bowel cancer screening program participation"/>
                    </coding>
                    <text value="National Bowel Cancer Screening Program Participation"/>
                </code>
                <subject>
                    <reference value="urn:uuid:82478850-5a44-4efe-90a6-d7345aa0053f"/>
                    <identifier>
                        <type>
                            <coding>
                                <system value="http://terminology.hl7.org/CodeSystem/v2-0203"/>
                                <code value="NI"/>
                                <display value="National unique individual identifier"/>
                            </coding>
                            <text value="IHI"/>
                        </type>
                        <system value="http://ns.electronichealth.net.au/id/hi/ihi/1.0"/>
                        <value value="8003608833564735"/>
                    </identifier>
                </subject>
                <!--Records date this program participation information is asserted as 'true' -->
                <effectiveDateTime value="2021-05-22T07:01:00+10:00"/>
                <performer>
                    <reference value="urn:uuid:19f63304-d81a-4acb-918a-4eeb39f3261f"/>
                    <identifier>
                        <type>
                            <coding>
                                <system value="http://terminology.hl7.org.au/CodeSystem/v2-0203"/>
                                <code value="NOI"/>
                                <display value="National Organisation Identifier"/>
                            </coding>
                            <text value="PAI-O"/>
                        </type>
                        <system value="http://ns.electronichealth.net.au/id/pcehr/paio/1.0"/>
                        <value value="TBD"/>
                    </identifier>
                </performer>
                <!--1.	Program participation status -->
                <component>
                    <code>
                        <coding>
                            <system value="http://snomed.info/sct"/>
                            <code value="1603781000168102"/>
                            <display value="Program participation status"/>
                        </coding>
                        <text value="Participant status"/>
                    </code>
                    <valueCodeableConcept>
                        <coding>
                            <system value="http://snomed.info/sct"/>
                            <code value="1602001000168101"/>
                            <display value="Active participation"/>
                        </coding>
                        <text value="Actively screening"/>
                    </valueCodeableConcept>
                </component>
                <!--2.	Program participation status validity period -->
                <component>
                    <code>
                        <coding>
                            <system value="http://snomed.info/sct"/>
                            <code value="1604051000168109"/>
                            <display value="Program participation status period"/>
                        </coding>
                        <text value="Participant status period"/>
                    </code>
                    <valuePeriod>
                        <start value="2021-05-22"/>
                    </valuePeriod>
                </component>
                <!--3.	Suspension of program participation -->
                <component>
                    <code>
                        <coding>
                            <system value="http://snomed.info/sct"/>
                            <code value="1603871000168108"/>
                            <display value="Program participation suspension indicator"/>
                        </coding>
                        <text value="Defer flag"/>
                    </code>
                    <!--Patient has not deferred-->
                    <valueBoolean value="false"/>
                </component>
                <!--13. Forecast status -->
                <component>
                    <code>
                        <coding>
                            <system value="http://snomed.info/sct"/>
                            <code value="1604041000168107"/>
                            <display value="Program forecast status"/>
                        </coding>
                        <text value="Next screening action"/>
                    </code>
                    <valueCodeableConcept>
                        <text value="Eligible On:"/>
                    </valueCodeableConcept>
                </component>
                <!--14.	Forecast status validity period -->
                <component>
                    <code>
                        <coding>
                            <system value="http://snomed.info/sct"/>
                            <code value="1604051000168109"/>
                            <display value="Program forecast status period"/>
                        </coding>
                        <text value="Next screening action date"/>
                    </code>
                    <!--Next screening date patient is eligible for is in 2 years -->
                    <valuePeriod>
                        <start value="2023-05-22"/>
                    </valuePeriod>
                </component>
            </Observation>
        </resource>
    </entry>
</Bundle>
