<?xml version="1.0" encoding="UTF-8"?>
<Bundle xmlns="http://hl7.org/fhir">
    <!--WORK IN PROGRESS-->
    <id value="es-narrative-02-doc"/>
    <meta>
        <lastUpdated value="2020-06-03T11:00:00+10:00"/>
        <profile value="http://ns.electronichealth.net.au/fhir/StructureDefinition/dh-bundle-document-1"/>        
    </meta>
    <identifier>
        <system value="urn:ietf:rfc:3986"/>
        <value value="urn:uuid:0c3151bd-1cbf-4d64-b04d-cd9187a4c6e0"/>
    </identifier>
    <type value="document"/>
    <timestamp value="2020-06-03T11:00:00+10:00"/>
    <entry>
        <fullUrl value="urn:uuid:2384da13-ff91-4e05-930f-2d7a034ea713"/>
        <resource>
        <Composition xmlns="http://hl7.org/fhir">
            <id value="2384da13-ff91-4e05-930f-2d7a034ea713"/>
            <meta>
                <lastUpdated value="2020-06-03T11:00:00+10:00"/>
                <profile value="http://ns.electronichealth.net.au/fhir/StructureDefinition/dh-composition-es-narrative-1"/>
            </meta>
            <language value="en-AU"/>
            <text>
                <status value="additional"/>
                <div xmlns="http://www.w3.org/1999/xhtml" lang="en-AU">
                    <h1>Event Summary</h1>
                    <p><b>subject</b>: ZHANG Wei; MC = 29533070311; IHI = 8003608000228437; gender = male</p>
                    <p><b>status</b>: final</p>
                    <p><b>date</b>: 30/05/2020 10:00:00 AM</p>
                    <p><b>author</b>: Dr Greg Algrester,  HPI-I = 8003614900041243; Contact: 0491579760 or 
                        drgreg@algregstermedical.example.com</p>
                    <p><b>attester</b>: Dr Greg Algrester,  HPI-I = 8003614900041243; Contact: 0491579760 or 
                        drgreg@algregstermedical.example.com</p>
                    <p><b>custodian</b>: Algregster Medical Centre; HPI-O = 8003621566699776;
                        info@algregstermedical.example.com; ph: (07) 5550 2427</p>
                </div>
            </text>
            <identifier>
                <system value="urn:ietf:rfc:3986"/>
                <value value="urn:uuid:f028f914-f7a6-4ddf-ab70-9fb6f0ee00ad"/>
            </identifier>
            <status value="final"/>
            <type>
                <coding>
                    <system value="http://loinc.org"/>
                    <code value="34133-9"/>
                    <display value="Summary of episode note"/>
                </coding>
            </type>
            <category>
                <coding>
                    <system value="http://loinc.org"/>
                    <code value="34133-9"/>
                    <display value="Summary of episode note"/>
                </coding>
            </category>
            <subject>
                <reference value="urn:uuid:3a72f2d2-c9ed-40a4-beac-01c14dcf244a"/>
            </subject>
            <encounter>
                <reference value="urn:uuid:6c39fd65-2a5f-42d0-b3db-20b6416e2b9a"/>
            </encounter>
            <date value="2020-05-30T10:00:00+10:00"/>
            <author>
                <reference value="urn:uuid:45cad6ac-e9a3-418a-8480-4e64132849f2"/>
            </author>
            <title value="Event Summary"/>
            <attester>
                <mode value="legal"/>
                <time value="2020-05-30T10:00:00+10:00"/>
                <party>
                    <reference value="urn:uuid:45cad6ac-e9a3-418a-8480-4e64132849f2"/>
                </party>
            </attester>
            <custodian>
                <reference value="urn:uuid:021fff67-c5ec-438f-9520-ce9bafee1306"/>
            </custodian>
            <section>
                <title value="Event Details"/>
                <code>
                    <coding>
                        <system
                            value="https://healthterminologies.gov.au/fhir/CodeSystem/nctis-data-components-1"/>
                        <code value="101.16672"/>
                    </coding>
                </code>
                <text>
                    <status value="additional"/>
                    <div xmlns="http://www.w3.org/1999/xhtml" lang="en-AU">
                        <p>Patient presented for follow-up with urinary tract infection on 30
                            May.</p>
                        <p>Complaining of frequent and painful urinating. Midstream urine test was
                            done and revealed urinary infection.</p>
                        <p>Culture and sensitivity test discovered escherichia coli sensitive to
                            Bactrim.</p>
                        <p>Patient was prescribed Bactrim 2 tablets twice a day, and Panadol one
                            tablet 4 times a day.</p>
                        <p>Patient has no allergies.</p>
                    </div>
                </text>
            </section>

            <section>
                <title value="Allergies and Adverse Reactions"/>
                <code>
                    <coding>
                        <system value="http://loinc.org"/>
                        <code value="48765-2"/>
                    </coding>
                </code>
                <text>
                    <status value="additional"/>
                    <div xmlns="http://www.w3.org/1999/xhtml" lang="en-AU">
                        <p>No known allergies</p>
                    </div>
                </text>
            </section>

            <section>
                <title value="Medications"/>
                <code>
                    <coding>
                        <system value="http://loinc.org"/>
                        <code value="10160-0"/>
                    </coding>
                </code>
                <text>
                    <status value="additional"/>
                    <div xmlns="http://www.w3.org/1999/xhtml" lang="en-AU">
                        <table border="1">
                            <caption>Medicines List</caption>
                            <thead>
                                <tr>
                                    <th>Medicine</th>
                                    <th>Directions</th>
                                    <th>Clinical Indication/Change description</th>
                                    <th>Status</th>
                                </tr>
                            </thead>
                            <tbody>
                                <tr>
                                    <td><b>Bactrim</b> DS - tablet</td>
                                    <td>Take 2 tablets twice a day</td>
                                    <td>To treat bacterial infections</td>
                                    <td>New prescription</td>
                                </tr>
                                <tr>
                                    <td><b>Panadol</b> 500mg - tablet</td>
                                    <td>Take 1 tablet four times a day</td>
                                    <td>For pain</td>
                                    <td>New</td>
                                </tr>
                            </tbody>
                        </table>
                    </div>
                </text>
            </section>

            <section>
                <title value="Medical History"/>
                <code>
                    <coding>
                        <system
                            value="https://healthterminologies.gov.au/fhir/CodeSystem/nctis-data-components-1"/>
                        <code value="101.16117"/>
                    </coding>
                </code>
                <text>
                    <status value="additional"/>
                    <div xmlns="http://www.w3.org/1999/xhtml" lang="en-AU">
                        <table border="1">
                            <caption>Condition Details</caption>
                            <thead>
                                <tr>
                                    <th>Condition</th>
                                    <th>Onset Date Time</th>
                                </tr>
                            </thead>
                            <tbody>
                                <tr>
                                    <td>Urinary tract infection</td>
                                    <td>2020-05-10</td>
                                </tr>
                            </tbody>
                        </table>
                    </div>
                </text>
            </section>
            <section>
                <title value="Diagnostic Investigations"/>
                <code>
                    <coding>
                        <system value="http://loinc.org"/>
                        <code value="30954-2"/>
                    </coding>
                </code>
                <text>
                    <status value="additional"/>
                    <div xmlns="http://www.w3.org/1999/xhtml" lang="en-AU">
                        <table border="1">
                            <caption>Diagnostic results</caption>
                            <thead>
                                <tr>
                                    <th>Test</th>
                                    <th>Result</th>
									<th>Date</th>
                                </tr>
                            </thead>
                            <tbody>
                                <tr>
                                    <td>Culture and sensitivity</td>
                                    <td>Escherichia coli grown</td>
									<td>2020-05-10</td>
                                </tr>
                            </tbody>
                        </table>
                    </div>
                </text>
            </section>
        </Composition>
        </resource>
    </entry>
    <entry>
        <fullUrl value="urn:uuid:3a72f2d2-c9ed-40a4-beac-01c14dcf244a"/>
        <resource>
            <Patient xmlns="http://hl7.org/fhir">
                <id value="3a72f2d2-c9ed-40a4-beac-01c14dcf244a"/>
                <extension url="http://hl7.org/fhir/StructureDefinition/patient-birthPlace">
                    <valueAddress>
                        <text value="China"/>
                        <country value="CHN"/>
                    </valueAddress>
                </extension>
                <extension url="http://hl7.org.au/fhir/StructureDefinition/indigenous-status">
                    <valueCoding>
                        <system value="https://healthterminologies.gov.au/fhir/CodeSystem/australian-indigenous-status-1"/>
                        <code value="4"/>
                        <display value="Neither Aboriginal nor Torres Strait Islander origin"/>
                    </valueCoding>
                </extension>
                <extension url="http://hl7.org/fhir/StructureDefinition/patient-interpreterRequired">
                    <valueBoolean value="true"/>
                </extension>
                <extension url="http://hl7.org.au/fhir/StructureDefinition/date-of-arrival">
                    <valueDate value="2017"/> 
                </extension>
                <identifier>
                    <type>
                        <coding>
                            <system value="http://terminology.hl7.org/CodeSystem/v2-0203"/>
                            <code value="NI"/>
                        </coding>
                        <text value="IHI"/>
                    </type>
                    <system value="http://ns.electronichealth.net.au/id/hi/ihi/1.0"/>
                    <value value="8003608000228437"/>
                </identifier>
                <identifier>
                    <type>
                        <coding>
                            <system value="http://terminology.hl7.org/CodeSystem/v2-0203"/>
                            <code value="MC"/>
                        </coding>
                        <text value="Medicare Number"/>
                    </type>
                    <system value="http://ns.electronichealth.net.au/id/medicare-number"/>
                    <value value="29533070311"/>
                </identifier>
                <name>
                    <family value="Zhang"/>
                    <given value="Wei"/>
                    <prefix value="Mr"/>
                </name>
                <gender value="male"/>
                <birthDate value="1972-05-03">
                </birthDate>
                <communication>
                    <language>
                        <coding>
                            <system value="urn:ietf:bcp:47"/>
                            <code value="yue"/>
                        </coding>
                        <text value="Cantonese"/>
                    </language>
                    <preferred value="true"/>
                </communication>
            </Patient>
        </resource>
    </entry>
    <entry>
        <fullUrl value="urn:uuid:40a94071-8373-4d53-a788-63b79c75a3c1"/>
        <resource>
            <Practitioner xmlns="http://hl7.org/fhir">
                <id value="40a94071-8373-4d53-a788-63b79c75a3c1"/>
                <identifier>
                    <type>
                        <coding>
                            <system value="http://terminology.hl7.org/CodeSystem/v2-0203"/>
                            <code value="NPI"/>
                            <display value="National provider identifier"/>
                        </coding>
                        <text value="HPI-I"/>
                    </type>
                    <system value="http://ns.electronichealth.net.au/id/hi/hpii/1.0"/>
                    <value value="8003614900041243"/>
                </identifier>  
                <name>        
                    <family value="Algrester" />
                    <given value="Greg" />
                    <prefix value="Dr."/>
                </name>
                <telecom>
                    <system value="email"/>
                    <value value="drgreg@algregstermedical.example.com"/>
                </telecom>
            </Practitioner>
        </resource>
    </entry>
    <entry>
        <fullUrl value="urn:uuid:45cad6ac-e9a3-418a-8480-4e64132849f2"/>
        <resource>
            <PractitionerRole xmlns="http://hl7.org/fhir">
                <id value="45cad6ac-e9a3-418a-8480-4e64132849f2"/>
                <identifier>
                    <type>
                        <coding>
                            <system value="http://terminology.hl7.org/CodeSystem/v2-0203"/>
                            <code value="EI"/>
                            <display value="Employee number"/>
                        </coding>
                        <text value="Employee Number"/>
                    </type>
                    <system value="http://ns.electronichealth.net.au/id/hpio-scoped/service-provider-individual/1.0/8003621566699776" />
                    <value value="AMC-GA-001" />
                    <assigner>
                        <display value="Algregster Medical Center QLD"/>
                    </assigner>
                </identifier>
                <identifier>
                    <type>
                        <coding>
                            <system value="http://terminology.hl7.org/CodeSystem/v2-0203"/>
                            <code value="NPI"/>
                            <display value="National provider identifier"/>
                        </coding>
                        <text value="HPI-I"/>
                    </type>
                    <system value="http://ns.electronichealth.net.au/id/hi/hpii/1.0"/>
                    <value value="8003614900041243"/>
                </identifier>
                <practitioner>
                    <reference value="urn:uuid:40a94071-8373-4d53-a788-63b79c75a3c1"/>
                </practitioner> 
                <organization>
                    <reference value="urn:uuid:021fff67-c5ec-438f-9520-ce9bafee1306"/>
                </organization>
                <code>
                    <coding>
                        <system value="http://snomed.info/sct"/>
                        <code value="62247001"/>
                    </coding>
                    <text value="General Practitioner"/>
                </code>
                <telecom>
                    <system value="phone"/>
                    <value value="0491579760"/>
                </telecom>
                <telecom>
                    <system value="email"/>
                    <value value="drgreg@algregstermedical.example.com"/>        
                </telecom>    
            </PractitionerRole>
        </resource>
    </entry>
    <entry>
        <fullUrl value="urn:uuid:021fff67-c5ec-438f-9520-ce9bafee1306"/>
        <resource>
            <Organization xmlns="http://hl7.org/fhir">
                <id value="021fff67-c5ec-438f-9520-ce9bafee1306"/>
                <identifier>
                    <type>
                        <coding>
                            <system value="http://terminology.hl7.org.au/CodeSystem/v2-0203"/>
                            <code value="NOI"/>
                        </coding>
                        <text value="HPI-O"/>
                    </type>
                    <system value="http://ns.electronichealth.net.au/id/hi/hpio/1.0"/>
                    <value value="8003621566699776"/>
                </identifier>
                <type>
                    <coding>
                        <system value="http://snomed.info/sct"/>
                        <code value="288565001"/>
                        <display value="Medical centre"/>
                    </coding>
                    <text value="Medical Centre"/>
                </type>
                <name value="Algregster Medical Centre"/>
                <telecom>
                    <system value="email"/>
                    <value value="info@algregstermedical.example.com"/>
                    <use value="work"/>
                </telecom>
                <telecom>
                    <system value="phone"/>
                    <value value="(07) 5550 2427"/>
                    <use value="work"/>
                </telecom>
                <address>        
                    <line value="87 Western Esp"/>
                    <city value="Tindal RAAF"/>
                    <state value="QLD"/>
                    <postalCode value="4655"/>
                    <country value="AU"/>
                </address>
            </Organization>
        </resource>
    </entry>
    <entry>
        <fullUrl value="urn:uuid:6c39fd65-2a5f-42d0-b3db-20b6416e2b9a"/>
        <resource>
            <Encounter xmlns="http://hl7.org/fhir">
                <id value="6c39fd65-2a5f-42d0-b3db-20b6416e2b9a"/>
                <extension url="http://hl7.org.au/fhir/StructureDefinition/encounter-description">
                    <valueString value="Patient presented for follow-up with urinary tract infection on 30 May. Complaining of frequent and painful urinating. 
                        Midstream urine test was done and revealed urinary infection. Culture and sensitivity test discovered escherichia coli sensitive to Bactrim.
                        Patient was prescribed Bactrim 2 tablets twice a day, and Panadol one tablet 4 times a day. Patient has no allergies."/>
                </extension>
                <status value="finished"/>
                <class>
                    <system value="http://terminology.hl7.org/CodeSystem/v3-ActCode"/>
                        <code value="AMB"/>
                        <display value="ambulatory"/>                    
                </class>
                <type>
                    <coding>
                        <system value="http://snomed.info/sct"/>
                        <code value="390906007"/>
                        <display value="Follow-up encounter"/>  
                    </coding>
                </type>
                <serviceType>
                    <coding>
                        <system value="http://snomed.info/sct"/>
                        <code value="700232004"/>
                        <display value="General medical service"/>      
                    </coding>
                </serviceType>
                <subject>
                    <reference value="urn:uuid:3a72f2d2-c9ed-40a4-beac-01c14dcf244a"/>
                </subject>
                <participant>
                    <type>
                        <coding>
                            <system value="http://terminology.hl7.org/CodeSystem/v3-ParticipationType"/>
                            <code value="PPRF"/>
                            <display value="primary performer"/>   
                        </coding>
                    </type>
                    <individual>
                        <reference value="urn:uuid:45cad6ac-e9a3-418a-8480-4e64132849f2"/>
                    </individual>
                </participant>
                <period>
                    <start value="2020-05-30T09:00:00+10:00"/>
                    <end value="2020-05-30T09:30:00+10:00"/>
                </period>
            </Encounter>
        </resource>
    </entry>
    
</Bundle>
