<?xml version="1.0" encoding="UTF-8"?>
<Bundle xmlns="http://hl7.org/fhir">
    <id value="ncsr-01"/>
    <!--Bundle for 'data in' from NCSR to MHR-->
    <meta>
        <lastUpdated value="2021-05-22T10:01:00+10:00"/>
        <profile value="http://ns.electronichealth.net.au/fhir/StructureDefinition/dh-bundle-payload-1"/>
        <profile value="http://ns.electronichealth.net.au/fhir/StructureDefinition/dh-bundle-core-1"/>
    </meta>
    <identifier>
        <system value="urn:ietf:rfc:3986"/>
        <value value="urn:uuid:5a655945-c2b3-4d01-9e88-224873e32d8d"/>
    </identifier>
    <type value="collection"/>
    <timestamp value="2021-05-22T10:01:00+10:00"/>
    <!--    PATIENT    -->
    <entry>
        <fullUrl value="urn:uuid:d66d5b80-5965-4d7c-b17b-0344cf896b89"/>
        <resource>
            <Patient xmlns="http://hl7.org/fhir">
                <id value="hi-testdata-moss-cleo"/>
                <extension url="http://hl7.org.au/fhir/StructureDefinition/indigenous-status">
                    <valueCoding>
                        <system value="https://healthterminologies.gov.au/fhir/CodeSystem/australian-indigenous-status-1"/>
                        <code value="4"/>
                        <display value="Neither Aboriginal nor Torres Strait Islander origin"/>
                    </valueCoding>
                </extension>
                <identifier>
                    <type>
                        <coding>
                            <system value="http://terminology.hl7.org/CodeSystem/v2-0203"/>
                            <code value="NI"/>
                            <display value="National unique individual identifier"/>
                        </coding>
                        <text value="IHI"/>
                    </type>
                    <system value="http://ns.electronichealth.net.au/id/hi/ihi/1.0"/>
                    <value value="8003608833564735"/>
                </identifier>
                <name>
                    <family value="Moss"/>
                    <given value="Cleo"/>
                    <suffix value="Esq."/>        
                </name>
                <telecom>
                    <system value="email"/>
                    <value value="moss@gmail.com"/>
                </telecom>
                <gender value="female"/>
                <birthDate value="1965-08-23"/>
                <address>
                    <use value="home"/>
                    <text value="138 Gateway Ct, CALDER, TAS, 7325"/>
                </address>
            </Patient>
        </resource>
    </entry>
    <!--    ORGANIZATION NCSR   -->
    <entry>
        <fullUrl value="urn:uuid:d574e9a6-99b1-4959-b3fa-463f7b7f8677"/>
        <resource>
            <Organization xmlns="http://hl7.org/fhir">
                <id value="ncsr-operator"/>
                <identifier>
                    <type>
                        <coding>
                            <system value="http://terminology.hl7.org.au/CodeSystem/v2-0203"/>
                            <code value="NOI"/>
                            <display value="National Organisation Identifier"/>
                        </coding>
                        <text value="PAI-O"/>
                    </type>
                    <system value="http://ns.electronichealth.net.au/id/pcehr/paio/1.0"/>
                    <value value="TBD"/>
                </identifier>
                <name value="National Cancer Screening Register system operator"/>
            </Organization>
        </resource>
    </entry>
    <!--    OBSERVATION -->
    <entry>
        <fullUrl value="urn:uuid:949133cb-de9a-44a7-b3d3-bd0e9d9d2faf"/>
        <resource>
            <Observation xmlns="http://hl7.org/fhir">
                <id value="program-participation-ncsp-01"/>
                <!--Scenario: Active screening, next action in 1 year (2021)
    Scenario Description: NCSR receives a Cervical result for participant on 22 May 2021. 
    Status updates to Actively Screening, and their next due date is in 1 year due to the risk category of that participant. -->
                <!--update to id from pcehr doc registration?-->
                <meta>
                    <lastUpdated value="2021-05-22T10:01:00+10:00"/>
                </meta>
                <identifier>
                    <system value="urn:ietf:rfc:4122"/>
                    <value value="28c02479-27ed-4d95-957b-d6703c2bcc97"/>
                </identifier>
                <status value="final"/>
                <!-- therapy or ?-->
                <category>
                    <coding>
                        <system value="http://terminology.hl7.org/CodeSystem/observation-category"/>
                        <code value="therapy"/>
                        <display value="Therapy"/>
                    </coding>
                    <text value="Cancer screening program"/>
                </category>
                <code>
                    <coding>
                        <system value="http://snomed.info/sct"/>
                        <code value="TBD"/>
                        <display value="National cervical cancer screening program participation"/>
                    </coding>
                    <text value="National Cervical Cancer Screening Program Participation"/>
                </code>
                <subject>
                    <reference value="urn:uuid:d66d5b80-5965-4d7c-b17b-0344cf896b89"/>
                    <identifier>
                        <type>
                            <coding>
                                <system value="http://terminology.hl7.org/CodeSystem/v2-0203"/>
                                <code value="NI"/>
                                <display value="National unique individual identifier"/>
                            </coding>
                            <text value="IHI"/>
                        </type>
                        <system value="http://ns.electronichealth.net.au/id/hi/ihi/1.0"/>
                        <value value="8003608833564735"/>
                    </identifier>
                </subject>
                <!--Records date this program participation information is asserted as 'true' -->
                <effectiveDateTime value="2021-05-22T10:01:00+10:00"/>
                <performer>
                    <reference value="urn:uuid:d574e9a6-99b1-4959-b3fa-463f7b7f8677"/>
                    <identifier>
                        <type>
                            <coding>
                                <system value="http://terminology.hl7.org.au/CodeSystem/v2-0203"/>
                                <code value="NOI"/>
                                <display value="National Organisation Identifier"/>
                            </coding>
                            <text value="PAI-O"/>
                        </type>
                        <system value="http://ns.electronichealth.net.au/id/pcehr/paio/1.0"/>
                        <value value="TBD"/>
                    </identifier>
                </performer>
                <!--1.	Program participation status -->
                <component>
                    <code>
                        <coding>
                            <system value="http://snomed.info/sct"/>
                            <code value="TBD"/>
                            <display value="Program participation status"/>
                        </coding>
                        <text value="Participant status"/>
                    </code>
                    <valueCodeableConcept>
                        <coding>
                            <system value="http://snomed.info/sct"/>
                            <code value="TBD"/>
                            <display value="Active"/>
                        </coding>
                        <text value="Actively screening"/>
                    </valueCodeableConcept>
                </component>
                <!--2.	Program participation status validity period -->
                <component>
                    <code>
                        <coding>
                            <system value="http://snomed.info/sct"/>
                            <code value="TBD"/>
                            <display value="Program participation status validity period"/>
                        </coding>
                        <text value="Participant status period"/>
                    </code>
                    <valuePeriod>
                        <start value="2021-05-22"/>
                    </valuePeriod>
                </component>
                <!--3.	Suspension of program participation -->
                <component>
                    <code>
                        <coding>
                            <system value="http://snomed.info/sct"/>
                            <code value="TBD"/>
                            <display value="Program participation suspension"/>
                        </coding>
                        <text value="Defer Flag"/>
                    </code>
                    <!--Patient has not deferred-->
                    <valueBoolean value="false"/>
                </component>
                <!--13. Forecast status is not provided in this scenario-->
                <!--14.	Forecast status validity period -->
                <component>
                    <code>
                        <coding>
                            <system value="http://snomed.info/sct"/>
                            <code value="TBD"/>
                            <display value="Forecast status validity period"/>
                        </coding>
                        <text value="Next screening action date"/>
                    </code>
                    <!--Next screening date for patient is in 1 year -->
                    <valuePeriod>
                        <start value="2022-05-22"/>
                    </valuePeriod>
                </component>
            </Observation>
        </resource>
    </entry>
    <!--    OBSERVATION    -->
    <entry>
        <fullUrl value="urn:uuid:b52df3bf-f723-47ca-bff9-d37f6f409896"/>
        <resource>
            <Observation xmlns="http://hl7.org/fhir">
                <id value="program-participation-nbcsp-03"/>
                <!--Scenario: Active screening, next due in 2 years (2021)
    Scenario Description: NCSR receives a negative FOBT result for participant. Status updates to Actively Screening, and their next due date is in 2 years  -->
                <!--update to id from pcehr doc registration?-->
                <meta>
                    <lastUpdated value="2021-05-22T10:01:00+10:00"/>
                </meta>
                <identifier>
                    <system value="urn:ietf:rfc:4122"/>
                    <value value="4732293f-40e4-45a3-81b5-9cc2ae8b2f38"/>
                </identifier>
                <status value="final"/>
                <!-- therapy or ?-->
                <category>
                    <coding>
                        <system value="http://terminology.hl7.org/CodeSystem/observation-category"/>
                        <code value="therapy"/>
                        <display value="Therapy"/>
                    </coding>
                    <text value="Cancer screening program"/>
                </category>
                <code>
                    <coding>
                        <system value="http://snomed.info/sct"/>
                        <code value="TBD"/>
                        <display value="National bowel cancer screening program participation"/>
                    </coding>
                    <text value="National Bowel Cancer Screening Program Participation"/>
                </code>
                <subject>
                    <reference value="urn:uuid:d66d5b80-5965-4d7c-b17b-0344cf896b89"/>
                    <identifier>
                        <type>
                            <coding>
                                <system value="http://terminology.hl7.org/CodeSystem/v2-0203"/>
                                <code value="NI"/>
                                <display value="National unique individual identifier"/>
                            </coding>
                            <text value="IHI"/>
                        </type>
                        <system value="http://ns.electronichealth.net.au/id/hi/ihi/1.0"/>
                        <value value="8003608833564735"/>
                    </identifier>
                </subject>
                <!--Records date this program participation information is asserted as 'true' -->
                <effectiveDateTime value="2021-05-22T07:01:00+10:00"/>
                <performer>
                    <reference value="urn:uuid:d574e9a6-99b1-4959-b3fa-463f7b7f8677"/>
                    <identifier>
                        <type>
                            <coding>
                                <system value="http://terminology.hl7.org.au/CodeSystem/v2-0203"/>
                                <code value="NOI"/>
                                <display value="National Organisation Identifier"/>
                            </coding>
                            <text value="PAI-O"/>
                        </type>
                        <system value="http://ns.electronichealth.net.au/id/pcehr/paio/1.0"/>
                        <value value="TBD"/>
                    </identifier>
                </performer>
                <!--1.	Program participation status -->
                <component>
                    <code>
                        <coding>
                            <system value="http://snomed.info/sct"/>
                            <code value="TBD"/>
                            <display value="Program participation status"/>
                        </coding>
                        <text value="Participant status"/>
                    </code>
                    <valueCodeableConcept>
                        <coding>
                            <system value="http://snomed.info/sct"/>
                            <code value="TBD"/>
                            <display value="Active"/>
                        </coding>
                        <text value="Actively screening"/>
                    </valueCodeableConcept>
                </component>
                <!--2.	Program participation status validity period -->
                <component>
                    <code>
                        <coding>
                            <system value="http://snomed.info/sct"/>
                            <code value="TBD"/>
                            <display value="Program participation status validity period"/>
                        </coding>
                        <text value="Participant status period"/>
                    </code>
                    <valuePeriod>
                        <start value="2021-05-22"/>
                    </valuePeriod>
                </component>
                <!--3.	Suspension of program participation -->
                <component>
                    <code>
                        <coding>
                            <system value="http://snomed.info/sct"/>
                            <code value="TBD"/>
                            <display value="Program participation suspension"/>
                        </coding>
                        <text value="Defer Flag"/>
                    </code>
                    <!--Patient has not deferred-->
                    <valueBoolean value="false"/>
                </component>
                <!--13. Forecast status -->
                <component>
                    <code>
                        <coding>
                            <system value="http://snomed.info/sct"/>
                            <code value="TBD"/>
                            <display value="Forecast status"/>
                        </coding>
                        <text value="Next screening action"/>
                    </code>
                    <valueCodeableConcept>
                        <text value="Eligible On:"/>
                    </valueCodeableConcept>
                </component>
                <!--14.	Forecast status validity period -->
                <component>
                    <code>
                        <coding>
                            <system value="http://snomed.info/sct"/>
                            <code value="TBD"/>
                            <display value="Forecast status validity period"/>
                        </coding>
                        <text value="Next screening action date"/>
                    </code>
                    <!--Next screening date patient is eligible for is in 2 years -->
                    <valuePeriod>
                        <start value="2023-05-22"/>
                    </valuePeriod>
                </component>
            </Observation>
        </resource>
    </entry>
</Bundle>
