<?xml version="1.0" encoding="UTF-8"?>
<Bundle xmlns="http://hl7.org/fhir">
    <id value="psml-01-doc"/>
    <meta>
        <lastUpdated value="2019-08-12T10:30:00+10:00"/>
        <profile value="http://ns.electronichealth.net.au/ci/fhir/StructureDefinition/dh-bundle-document-1"/>
        <profile value="http://ns.electronichealth.net.au/ci/fhir/StructureDefinition/dh-bundle-core-1"/>
    </meta>
    <identifier>
        <system value="urn:ietf:rfc:3986"/>
        <value value="urn:uuid:a1446554-f351-47b0-86f0-10baedadac60"/>
    </identifier>
    <type value="document"/>
    <timestamp value="2019-08-12T10:30:00+10:00"/>
    <entry>
        <fullUrl value="urn:uuid:fbb76e2c-62d9-40d9-bab3-00bd389b1913"/>
        <resource>
            <Composition xmlns="http://hl7.org/fhir">
                <id value="fbb76e2c-62d9-40d9-bab3-00bd389b1913"/>
                <meta>
                    <versionId value="20190812v01"/>
                    <profile value="http://ns.electronichealth.net.au/ci/fhir/StructureDefinition/dh-composition-document-1"/>
                </meta>
                <language value="en-AU"/>
                <!--WORKAROUND: The contents of Composition.text are a workaround to enable the tooling used to generate this implementation guide
                to generate a human friendly rendering instead of forcing the reader to refer to XML or JSON format to view the full example narrative.
                The contents below is not consistent with good or recommended practice. -->
                <text>
                    <status value="additional"/>
                    <div xmlns="http://www.w3.org/1999/xhtml">
                        <h2>Pharmacist Shared Medicines List</h2>
                        <ul>
                            <li>Date: 12/08/2019</li>
                            <li>Status: final</li>
                        </ul>
                        <h3>Patient details</h3>
                        <ul>
                            <li>Mrs Bonny Goodwin</li>
                            <li>Contact: (08) 5550 1234 (home phone); 0491 570 006 (mobile)</li>
                            <li>Female</li>
                            <li>Married</li>
                            <li>IHI: 8003608000228445</li>
                            <li>Medicare number: 3951032981</li>
                        </ul>
                        <h3>Author details</h3>
                        <ul>
                            <li>Pharmacist</li>
                            <li>HPI-I: 8003619900041630</li>
                        </ul>
                        <h3>Attester details</h3>
                        <ul>
                            <li>Pharmacist</li>
                            <li>HPI-I: 8003619900041630</li>
                            <li>Time: 02 Dec 2019 10:00 AM</li>
                        </ul>
                        <h3>General Practitioner</h3>
                        <ul>
                            <li>Dr. A. G. Practitioner</li>
                        </ul>
                        <h3>Allergies and Intolerances</h3>
                        <p>No known allergies</p>

                        <h3>Encounter Details</h3>
                        <p>Medicines review: 12 Aug 2019 09:00 AM to 12 Aug 2019 10:30 AM</p>

                        <h3>Current Medicines</h3>
                        <table border="1">
                            <caption>Current medicines</caption>
                            <thead>
                                <tr>
                                    <th>Medicine</th>
                                    <th>Medicine brand name</th>
                                    <th>Directions</th>
                                    <th>Purpose</th>
                                    <th>Status</th>
                                    <th>Status reason</th>
                                </tr>
                            </thead>
                            <tbody>
                                <tr>
                                    <td/>
                                    <td>Tritace</td>
                                    <td>Take one tablet in the morning daily.</td>
                                    <td>To reduce high blood pressure; treat heart failure after a
                                        heart attack; prevent progresion of kidney failure; reduce
                                        the risk of heart attack, stroke and stenting</td>
                                    <td>Unchanged</td>
                                    <td/>
                                </tr>
                                <tr>
                                    <td>docusate sodium 50 mg + sennoside B 8 mg tablet</td>
                                    <td>Co-Senna</td>
                                    <td>Take two tablets twice a day.</td>
                                    <td>Laxative for constipation, works by softening the stools and
                                        also assists by stimulating the gut to achieve bowel
                                        movements.</td>
                                    <td>New</td>
                                    <td>Laxative for constipation.</td>
                                </tr>
                                <tr>
                                    <td>Oxycodone</td>
                                    <td>Endone</td>
                                    <td>Take one to two tablets every four hours when required.</td>
                                    <td>For relief of moderate to severe pain.</td>
                                    <td>Amended</td>
                                    <td>Dose increased</td>
                                </tr>
                            </tbody>
                        </table>
                    </div>
                </text>
                <identifier>
                    <system value="urn:ietf:rfc:3986"/>
                    <value value="urn:uuid:c17ed9f8-228e-424b-9235-a98ac80d2756"/>
                </identifier>
                <status value="final"/>
                <type>
                    <coding>
                        <system value="http://loinc.org"/>
                        <code value="56445-0"/>
                    </coding>
                    <text value="Pharmacist Shared Medicines List"/>
                </type>
                <category>
                    <coding>
                        <system value="http://loinc.org"/>
                        <code value="56445-0"/>
                    </coding>
                </category>
                <subject>
                    <reference value="urn:uuid:d4b652b9-ac4b-41f0-93f3-7f40b24b16d3"/>
                    <!-- logical reference to Patient -->
                    <identifier>
                        <type>
                            <coding>
                                <system value="http://terminology.hl7.org/CodeSystem/v2-0203"/>
                                <code value="NI"/>
                            </coding>
                            <text value="IHI"/>
                        </type>
                        <system value="http://ns.electronichealth.net.au/id/hi/ihi/1.0"/>
                        <value value="8003608000228445"/>
                    </identifier>
                </subject>
                <encounter>
                    <reference value="urn:uuid:f168de08-0068-4e8b-917d-c7b84dcafbf6"/>
                </encounter>
                <date value="2019-08-12"/>
                <author>
                    <!-- logical reference to PractitionerRole -->
                    <identifier>
                        <type>
                            <coding>
                                <system value="http://terminology.hl7.org/CodeSystem/v2-0203"/>
                                <code value="NPI"/>
                                <display value="National provider identifier"/>
                            </coding>
                            <text value="HPI-I"/>
                        </type>
                        <system value="http://ns.electronichealth.net.au/id/hi/hpii/1.0"/>
                        <value value="8003619900041630"/>
                    </identifier>
                </author>
                <title value="Shared Medicines List"/>
                <attester>
                    <mode value="legal"/>
                    <time value="2019-09-02T10:00:15+10:00"/>
                    <party>
                        <!-- logical reference to PractitionerRole -->
                        <identifier>
                            <type>
                                <coding>
                                    <system value="http://terminology.hl7.org/CodeSystem/v2-0203"/>
                                    <code value="NPI"/>
                                    <display value="National provider identifier"/>
                                </coding>
                                <text value="HPI-I"/>
                            </type>
                            <system value="http://ns.electronichealth.net.au/id/hi/hpii/1.0"/>
                            <value value="8003619900041630"/>
                        </identifier>
                    </party>
                </attester>
                <custodian>
                    <!-- logical reference to Organization -->
                    <identifier>
                        <type>
                            <coding>
                                <system value="http://terminology.hl7.org.au/CodeSystem/v2-0203"/>
                                <code value="NOI"/>
                            </coding>
                            <text value="HPI-O"/>
                        </type>
                        <system value="http://ns.electronichealth.net.au/id/hi/hpio/1.0"/>
                        <value value="8003623233366573"/>
                    </identifier>
                </custodian>
                <section>
                    <title value="Allergies and Intolerances"/>
                    <code>
                        <coding>
                            <system value="http://loinc.org"/>
                            <code value="48765-2"/>
                        </coding>
                    </code>
                    <text>
                        <status value="generated"/>
                        <div xmlns="http://www.w3.org/1999/xhtml" lang="en-AU">
                            <p>No known allergies</p>
                        </div>
                    </text>
                    <entry>
                        <reference value="urn:uuid:9e146d18-06c8-4906-a8dd-09aa11941a72"/>
                    </entry>
                </section>
                <section>
                    <title value="Current Medicines"/>
                    <code>
                        <coding>
                            <system
                                value="https://healthterminologies.gov.au/fhir/CodeSystem/nctis-data-components-1"/>
                            <code value="101.32009"/>
                            <display value="Current Medicines"/>
                        </coding>
                    </code>
                    <text>
                        <status value="extensions"/>
                        <div xmlns="http://www.w3.org/1999/xhtml" lang="en-AU">
                            <table border="1">
                                <caption>Current Medicines</caption>
                                <thead>
                                    <tr>
                                        <th>Medicine</th>
                                        <th>Medicine brand name</th>
                                        <th>Directions</th>
                                        <th>Purpose</th>
                                        <th>Status</th>
                                        <th>Status reason</th>
                                    </tr>
                                </thead>
                                <tbody>
                                    <tr>
                                        <td/>
                                        <td>Tritace</td>
                                        <td>Take one tablet in the morning daily.</td>
                                        <td>To reduce high blood pressure; treat heart failure after
                                            a heart attack; prevent progresion of kidney failure;
                                            reduce the risk of heart attack, stroke and
                                            stenting</td>
                                        <td>Unchanged</td>
                                        <td/>
                                    </tr>
                                    <tr>
                                        <td>docusate sodium 50 mg + sennoside B 8 mg tablet</td>
                                        <td>Co-Senna</td>
                                        <td>Take two tablets twice a day.</td>
                                        <td>Laxative for constipation, works by softening the stools
                                            and also assists by stimulating the gut to achieve bowel
                                            movements.</td>
                                        <td>New</td>
                                        <td>Laxative for constipation.</td>
                                    </tr>
                                    <tr>
                                        <td>Oxycodone</td>
                                        <td>Endone</td>
                                        <td>Take one to two tablets every four hours when
                                            required.</td>
                                        <td>For relief of moderate to severe pain.</td>
                                        <td>Amended</td>
                                        <td>Dose increased</td>
                                    </tr>
                                </tbody>
                            </table>
                        </div>
                    </text>
                    <entry>
                        <reference value="urn:uuid:bea8b6f7-5de8-4247-ac07-b319ec6d0c24"/>
                    </entry>
                </section>
            </Composition>
        </resource>
    </entry>
    <entry>
        <fullUrl value="urn:uuid:d4b652b9-ac4b-41f0-93f3-7f40b24b16d3"/>
        <resource>
            <Patient xmlns="http://hl7.org/fhir">
                <id value="d4b652b9-ac4b-41f0-93f3-7f40b24b16d3"/>
                <!-- logical reference to Patient for matching purposes only-->
                <identifier>
                    <type>
                        <coding>
                            <system value="http://terminology.hl7.org/CodeSystem/v2-0203"/>
                            <code value="NI"/>
                        </coding>
                        <text value="IHI"/>
                    </type>
                    <system value="http://ns.electronichealth.net.au/id/hi/ihi/1.0"/>
                    <value value="8003608000228445"/>
                </identifier>
            </Patient>
        </resource>
    </entry>
    <entry>
        <fullUrl value="urn:uuid:f168de08-0068-4e8b-917d-c7b84dcafbf6"/>
        <resource>
            <Encounter>
                <id value="f168de08-0068-4e8b-917d-c7b84dcafbf6"/>
                <status value="finished"/>
                <class>
                    <system value="http://terminology.hl7.org/CodeSystem/v3-ActCode"/>
                    <code value="AMB"/>
                    <display value="ambulatory"/>                    
                </class>
                <type>
                    <coding>
                        <system value="http://snomed.info/sct"/>
                        <code value="1348961000168104"/>
                        <display value="Community pharmacy medicines review"/>
                    </coding>
                    <text value="Medicines review"/>
                </type>
                <serviceType>
                    <coding>
                        <system value="http://snomed.info/sct"/>
                        <code value="182836005"/>
                        <display value="Review of medication"/>
                    </coding>
                    <text value="Medicines review"/>
                </serviceType>
                <subject>
                    <!-- logical reference to Patient -->
                    <identifier>
                        <type>
                            <coding>
                                <system value="http://terminology.hl7.org/CodeSystem/v2-0203"/>
                                <code value="NI"/>
                            </coding>
                            <text value="IHI"/>
                        </type>
                        <system value="http://ns.electronichealth.net.au/id/hi/ihi/1.0"/>
                        <value value="8003608000228445"/>
                    </identifier>
                </subject>
                <participant>
                    <type>
                        <coding>
                            <system value="http://terminology.hl7.org/CodeSystem/v3-ParticipationType"/>
                            <code value="PPRF"/>
                            <display value="primary performer"/>   
                        </coding>
                    </type>
                    <individual>
                        <!-- logical reference to PractitionerRole -->
                        <identifier>
                            <type>
                                <coding>
                                    <system value="http://terminology.hl7.org/CodeSystem/v2-0203"/>
                                    <code value="NPI"/>
                                    <display value="National provider identifier"/>
                                </coding>
                                <text value="HPI-I"/>
                            </type>
                            <system value="http://ns.electronichealth.net.au/id/hi/hpii/1.0"/>
                            <value value="8003619900041630"/>
                        </identifier>
                    </individual>
                </participant>
                <period>
                    <start value="2019-08-12T09:00:00+10:00"/>
                    <end value="2019-08-12T10:30:00+10:00"/>
                </period>
            </Encounter>
        </resource>
    </entry>
    <entry>
        <fullUrl value="urn:uuid:9e146d18-06c8-4906-a8dd-09aa11941a72"/>
        <resource>
            <AllergyIntolerance>
                <id value="9e146d18-06c8-4906-a8dd-09aa11941a72"/>
                <clinicalStatus>
                    <coding>
                        <system value="http://terminology.hl7.org/CodeSystem/allergyintolerance-clinical"/>
                        <code value="active"/>
                        <display value="Active"/>
                    </coding>
                </clinicalStatus>
                <verificationStatus>
                    <coding>
                        <system value="http://terminology.hl7.org/CodeSystem/allergyintolerance-verification"/>
                        <code value="unconfirmed"/>
                        <display value="Unconfirmed"/>
                    </coding>
                </verificationStatus>
                <code>
                    <coding>
                        <system value="http://snomed.info/sct"/>
                        <code value="716186003"/>
                        <display value="No known allergy"/>
                    </coding>
                    <text value="No known allergies"/>
                </code>
                <patient>
                    <!-- logical reference to Patient -->
                    <identifier>
                        <type>
                            <coding>
                                <system value="http://terminology.hl7.org/CodeSystem/v2-0203"/>
                                <code value="NI"/>
                            </coding>
                            <text value="IHI"/>
                        </type>
                        <system value="http://ns.electronichealth.net.au/id/hi/ihi/1.0"/>
                        <value value="8003608000228445"/>
                    </identifier>
                </patient>
                <encounter>
                    <reference value="urn:uuid:f168de08-0068-4e8b-917d-c7b84dcafbf6"/>
                </encounter>
                <recorder>
                    <!-- logical reference to PractitionerRole -->
                    <identifier>
                        <type>
                            <coding>
                                <system value="http://terminology.hl7.org/CodeSystem/v2-0203"/>
                                <code value="NPI"/>
                                <display value="National provider identifier"/>
                            </coding>
                            <text value="HPI-I"/>
                        </type>
                        <system value="http://ns.electronichealth.net.au/id/hi/hpii/1.0"/>
                        <value value="8003619900041630"/>
                    </identifier>
                </recorder>
                <asserter>
                    <!-- logical reference to Patient -->
                    <identifier>
                        <type>
                            <coding>
                                <system value="http://terminology.hl7.org/CodeSystem/v2-0203"/>
                                <code value="NI"/>
                            </coding>
                            <text value="IHI"/>
                        </type>
                        <system value="http://ns.electronichealth.net.au/id/hi/ihi/1.0"/>
                        <value value="8003608000228445"/>
                    </identifier>
                </asserter>
            </AllergyIntolerance>
        </resource>
    </entry>
    <entry>
        <fullUrl value="urn:uuid:bea8b6f7-5de8-4247-ac07-b319ec6d0c24"/>
        <resource>
            <List>
                <id value="bea8b6f7-5de8-4247-ac07-b319ec6d0c24"/>
                <meta>
                    <profile value="http://ns.electronichealth.net.au/ci/fhir/StructureDefinition/dh-list-medication-use-pmr-1"/>
                </meta>
                <language value="en-AU"/>
                <status value="current"/>
                <mode value="snapshot"/>
                <title value="Current Medicines"/>
                <code>
                    <coding>
                        <system value="https://healthterminologies.gov.au/fhir/CodeSystem/nctis-data-components-1"/>
                        <code value="101.32009"/>
                        <display value="Current Medicines"/>
                    </coding>
                </code>
                <subject>
                    <!-- logical reference to Patient -->
                    <identifier>
                        <type>
                            <coding>
                                <system value="http://terminology.hl7.org/CodeSystem/v2-0203"/>
                                <code value="NI"/>
                            </coding>
                            <text value="IHI"/>
                        </type>
                        <system value="http://ns.electronichealth.net.au/id/hi/ihi/1.0"/>
                        <value value="8003608000228445"/>
                    </identifier>
                </subject>
                <encounter>
                    <reference value="urn:uuid:f168de08-0068-4e8b-917d-c7b84dcafbf6"/>
                </encounter>
                <date value="2019-08-12"/>
                <source>
                    <!-- logical reference to PractitionerRole -->
                    <identifier>
                        <type>
                            <coding>
                                <system value="http://terminology.hl7.org/CodeSystem/v2-0203"/>
                                <code value="NPI"/>
                                <display value="National provider identifier"/>
                            </coding>
                            <text value="HPI-I"/>
                        </type>
                        <system value="http://ns.electronichealth.net.au/id/hi/hpii/1.0"/>
                        <value value="8003619900041630"/>
                    </identifier>
                </source>
                <entry>
                    <flag>
                        <coding>
                            <system value="http://terminology.hl7.org.au/CodeSystem/medicine-item-change"/>
                            <code value="nochange"/>
                            <display value="Unchanged"/>
                        </coding>
                    </flag>
                    <item>
                        <reference value="urn:uuid:69ae207f-b088-4585-a041-7196479c3fbe"/>
                    </item>
                </entry>
                <entry>
                    <extension url="http://hl7.org.au/fhir/StructureDefinition/change-description">
                        <valueString value="Laxative for constipation."/>
                    </extension>
                    <flag>
                        <coding>
                            <system value="http://terminology.hl7.org.au/CodeSystem/medicine-item-change"/>
                            <code value="new"/>
                            <display value="New"/>
                        </coding>
                    </flag>
                    <item>
                        <reference value="urn:uuid:c32b7d74-33ef-4ccc-85e2-442148071b01"/>
                    </item>
                </entry>
                <entry>
                    <extension url="http://hl7.org.au/fhir/StructureDefinition/change-description">
                        <valueString value="Dose increased"/>
                    </extension>
                    <flag>
                        <coding>
                            <system value="http://terminology.hl7.org.au/CodeSystem/medicine-item-change"/>
                            <code value="amended"/>
                            <display value="Amended"/>
                        </coding>
                    </flag>
                    <item>
                        <reference value="urn:uuid:28c74aa8-b481-4ab2-80a2-bec1354b95a0"/>
                    </item>
                </entry>
            </List>
        </resource>
    </entry>
    <entry>
        <fullUrl value="urn:uuid:69ae207f-b088-4585-a041-7196479c3fbe"/>
        <resource>
            <MedicationStatement>
                <id value="69ae207f-b088-4585-a041-7196479c3fbe"/>
                <status value="active"/>
                <medicationReference>
                    <reference value="urn:uuid:01015470-52ce-4323-996b-f03f5f546f8f"/>
                </medicationReference>
                <subject>
                    <!-- logical reference to Patient -->
                    <identifier>
                        <type>
                            <coding>
                                <system value="http://terminology.hl7.org/CodeSystem/v2-0203"/>
                                <code value="NI"/>
                            </coding>
                            <text value="IHI"/>
                        </type>
                        <system value="http://ns.electronichealth.net.au/id/hi/ihi/1.0"/>
                        <value value="8003608000228445"/>
                    </identifier>
                </subject>
                <context>
                    <reference value="urn:uuid:f168de08-0068-4e8b-917d-c7b84dcafbf6"/>
                </context>
                <reasonCode>
                    <text value="To reduce high blood pressure; treat heart failure after a heart attack; prevent
                            progresion of kidney failure; reduce the risk of
                            heart attack, stroke and stenting"/>
                </reasonCode>
                <dosage>
                    <text value="Take one tablet in the morning daily."/>
                </dosage>
            </MedicationStatement>
        </resource>
    </entry>
    <entry>
        <fullUrl value="urn:uuid:c32b7d74-33ef-4ccc-85e2-442148071b01"/>
        <resource>
            <MedicationStatement>
                <id value="c32b7d74-33ef-4ccc-85e2-442148071b01"/>
                <status value="active"/>
                <medicationReference>
                    <reference value="urn:uuid:7cb67069-6a34-46c2-9ff5-76277fafc38e"/>
                </medicationReference>
                <subject>
                    <!-- logical reference to Patient -->
                    <identifier>
                        <type>
                            <coding>
                                <system value="http://terminology.hl7.org/CodeSystem/v2-0203"/>
                                <code value="NI"/>
                            </coding>
                            <text value="IHI"/>
                        </type>
                        <system value="http://ns.electronichealth.net.au/id/hi/ihi/1.0"/>
                        <value value="8003608000228445"/>
                    </identifier>
                </subject>
                <context>
                    <reference value="urn:uuid:f168de08-0068-4e8b-917d-c7b84dcafbf6"/>
                </context>
                <reasonCode>
                    <coding>
                        <system value="http://snomed.info/sct"/>
                        <code value="14760008"/>
                        <display value="Constipation"/>
                    </coding>
                    <text value="Laxative for constipation, works by softening the stools and also assists by
                        stimulating the gut to achieve bowel movements."/>
                </reasonCode>
                <dosage>
                    <text value="Take two tablets twice a day."/>
                </dosage>
            </MedicationStatement>
        </resource>
    </entry>
    <entry>
        <fullUrl value="urn:uuid:28c74aa8-b481-4ab2-80a2-bec1354b95a0"/>
        <resource>
            <MedicationStatement>
                <id value="28c74aa8-b481-4ab2-80a2-bec1354b95a0"/>
                <status value="active"/>
                <medicationReference>
                    <reference value="urn:uuid:9b79ca2a-023a-4076-b18d-0b2b5d99800d"/>
                </medicationReference>
                <subject>
                    <!-- logical reference to Patient -->
                    <identifier>
                        <type>
                            <coding>
                                <system value="http://terminology.hl7.org/CodeSystem/v2-0203"/>
                                <code value="NI"/>
                            </coding>
                            <text value="IHI"/>
                        </type>
                        <system value="http://ns.electronichealth.net.au/id/hi/ihi/1.0"/>
                        <value value="8003608000228445"/>
                    </identifier>
                </subject>
                <context>
                    <reference value="urn:uuid:f168de08-0068-4e8b-917d-c7b84dcafbf6"/>
                </context>
                <reasonCode>
                    <coding>
                        <system value="http://snomed.info/sct"/>
                        <code value="428346000"/>
                        <display value="Pain relief by medication"/>
                    </coding>
                    <text value="For relief of moderate to severe pain"/>
                </reasonCode>
                <dosage>
                    <text value="Take one to two tablets every four hours when required."/>
                </dosage>
            </MedicationStatement>
        </resource>
    </entry>
    <entry>
        <fullUrl value="urn:uuid:01015470-52ce-4323-996b-f03f5f546f8f"/>
        <resource>
            <Medication>
                <extension url="http://hl7.org.au/fhir/StructureDefinition/medication-brand-name">
                    <valueString value="Tritace"/>
                </extension>
                <code>
                    <text value="Tritace"/>
                </code>
            </Medication>
        </resource>
    </entry>
    <entry>
        <fullUrl value="urn:uuid:7cb67069-6a34-46c2-9ff5-76277fafc38e"/>
        <resource>
            <Medication>
                <code>
                    <coding>
                        <system value="http://snomed.info/sct"/>
                        <code value="33690011000036100"/>
                        <display value="docusate sodium 50 mg + sennoside B 8 mg tablet"/>
                    </coding>
                    <text value="docusate sodium 50 mg + sennoside B 8 mg tablet"/>
                </code>
            </Medication>
        </resource>
    </entry>
    <entry>
        <fullUrl value="urn:uuid:9b79ca2a-023a-4076-b18d-0b2b5d99800d"/>
        <resource>
            <Medication>
                <extension url="http://hl7.org.au/fhir/StructureDefinition/medication-brand-name">
                    <valueString value="Endone"/>
                </extension>
                <extension url="http://hl7.org.au/fhir/StructureDefinition/medication-generic-name">
                    <valueString value="Oxycodone"/>
                </extension>
                <code>
                    <coding>
                        <system value="http://pbs.gov.au/code/item"/>
                        <code value="5195K"/>
                        <display value="oxycodone hydrochloride 5 mg tablet, 20"/>
                    </coding>
                    <coding>
                        <system value="http://pbs.gov.au/code/item"/>
                        <code value="2622B"/>
                        <display value="OXYCODONE"/>
                    </coding>
                    <text value="Endone Oxycodone"/>
                </code>
            </Medication>
        </resource>
    </entry>
</Bundle>
