<?xml version="1.0" encoding="UTF-8"?>
<Bundle xmlns="http://hl7.org/fhir">
    <id value="psml-03-doc"/>
    <meta>
        <lastUpdated value="2018-12-11T13:30:00+10:00"/>
        <profile value="http://ns.electronichealth.net.au/fhir/StructureDefinition/dh-bundle-document-1"/>
        <profile value="http://ns.electronichealth.net.au/fhir/StructureDefinition/dh-bundle-core-1"/>
    </meta>
    <identifier>
        <system value="urn:ietf:rfc:3986"/>
        <value value="urn:uuid:b8ee2120-18dc-420b-9f6a-d114eda7315b"/>
    </identifier>
    <type value="document"/>
    <timestamp value="2018-12-11T13:30:00+10:00"/>
    <entry>
        <fullUrl value="urn:uuid:c6f90150-465c-4c16-8e99-c4efbda29036"/>
        <resource>
            <Composition xmlns="http://hl7.org/fhir">
                <id value="c6f90150-465c-4c16-8e99-c4efbda29036"/>
                <meta>
                    <profile value="http://ns.electronichealth.net.au/fhir/StructureDefinition/dh-composition-document-1"/>
                </meta>
                <language value="en-AU"/>
                <!--WORKAROUND: The contents of Composition.text are a workaround to enable the tooling used to generate this implementation guide
                to generate a human friendly rendering instead of forcing the reader to refer to XML or JSON format to view the full example narrative.
                The contents below is not consistent with good or recommended practice. -->
                <text>
                    <status value="additional"/>
                    <div xmlns="http://www.w3.org/1999/xhtml" lang="en-AU">
                        <table style="border-collapse:collapse;border-spacing:0;width:100%;">
                            <tr>
                                <th style="border-collapse:collapse;border-spacing:0;font-family:Arial, sans-serif;padding:10px 5px;border-style:solid;border-width:1px;overflow:hidden;word-break:normal;border-color:black;font-weight:bold;font-size:20px;background-color:#333333;color:#ffffff;border:none;text-align:center;vertical-align:top"
                                    colspan="4">Pharmacist Shared Medicines List</th>
                            </tr>
                            <tr>
                                <td style="border-collapse:collapse;border-spacing:0;font-family:Arial, sans-serif;font-size:14px;padding:10px 5px;border-style:solid;border-width:1px;overflow:hidden;word-break:normal;border-color:black;font-weight:bold;background-color:#333333;color:#ffffff;border-color:#000000;text-align:center;vertical-align:top"
                                    colspan="4">11 Dec 2018 01:30 PM </td>
                            </tr>
                            <tr>
                                <td style="border-collapse:collapse;border-spacing:0;font-family:Arial, sans-serif;font-size:14px;padding:10px 5px;border-style:solid;border-width:1px;overflow:hidden;word-break:normal;border-color:black;background-color:#333333;color:#ffffff;border-color:#000000;text-align:center;vertical-align:top"
                                    >Mac PRIEST</td>
                                <td style="border-collapse:collapse;border-spacing:0;font-family:Arial, sans-serif;font-size:14px;padding:10px 5px;border-style:solid;border-width:1px;overflow:hidden;word-break:normal;border-color:black;background-color:#333333;color:#ffffff;border-color:#000000;text-align:center;vertical-align:top"
                                    >DoB 9 Mar 1989 (30 yrs) </td>
                                <td style="border-collapse:collapse;border-spacing:0;font-family:Arial, sans-serif;font-size:14px;padding:10px 5px;border-style:solid;border-width:1px;overflow:hidden;word-break:normal;border-color:black;background-color:#333333;color:#ffffff;border-color:#000000;text-align:center;vertical-align:top"
                                    >Gender MALE</td>
                                <td style="border-collapse:collapse;border-spacing:0;font-family:Arial, sans-serif;font-size:14px;padding:10px 5px;border-style:solid;border-width:1px;overflow:hidden;word-break:normal;border-color:black;background-color:#333333;color:#ffffff;border-color:#000000;text-align:center;vertical-align:top"
                                    >IHI 8003608333563104 </td>
                            </tr>
                        </table>

                        <h3>Test Org -DigitalHealth 6</h3>
                        <p><b>Address: </b>570 Watcha St, GLEBE, NSW 2037 AU</p>
                        <p><b>HPI-O: </b>8003629900033370</p>
                        <p><b>Pharmacist:</b> Mr. Representative Pharmacist (HPI-I: 8003611566708354)</p>
                        <p><b>Email:</b> pha@gmail.com (work)</p>
                        <p><b>General Practitioner: </b>A Small Main Street Medical Centre</p>

                        <h3>Encounter Details</h3>
                        <table style="border-collapse:collapse;border-spacing:0;width:100%;">
                            <tr>
                                <th style="border-collapse:collapse;border-spacing:0;font-family:Arial, sans-serif;font-size:14px;font-weight:normal;padding:10px 5px;border-style:solid;border-width:1px;overflow:hidden;word-break:normal;border-color:black;font-weight:bold;background-color:#9b9b9b;border-color:#000000;text-align:left;vertical-align:top"
                                    >Description</th>
                                <th style="border-collapse:collapse;border-spacing:0;font-family:Arial, sans-serif;font-size:14px;font-weight:normal;padding:10px 5px;border-style:solid;border-width:1px;overflow:hidden;word-break:normal;border-color:black;font-weight:bold;background-color:#9b9b9b;border-color:#000000;text-align:left;vertical-align:top"
                                    >Start</th>
                                <th style="border-collapse:collapse;border-spacing:0;font-family:Arial, sans-serif;font-size:14px;font-weight:normal;padding:10px 5px;border-style:solid;border-width:1px;overflow:hidden;word-break:normal;border-color:black;font-weight:bold;background-color:#9b9b9b;border-color:#000000;text-align:left;vertical-align:top"
                                    >End</th>
                            </tr>
                            <tr>
                                <td style="border-collapse:collapse;border-spacing:0;font-family:Arial, sans-serif;font-size:14px;padding:10px 5px;border-style:solid;border-width:1px;overflow:hidden;word-break:normal;border-color:black;border-color:#000000;text-align:left;vertical-align:top"
                                    >Community pharmacy medicine review</td>
                                <td style="border-collapse:collapse;border-spacing:0;font-family:Arial, sans-serif;font-size:14px;padding:10px 5px;border-style:solid;border-width:1px;overflow:hidden;word-break:normal;border-color:black;border-color:#000000;text-align:left;vertical-align:top"
                                    >11/12/2018 10:00 AM</td>
                                <td style="border-collapse:collapse;border-spacing:0;font-family:Arial, sans-serif;font-size:14px;padding:10px 5px;border-style:solid;border-width:1px;overflow:hidden;word-break:normal;border-color:black;border-color:#000000;text-align:left;vertical-align:top"
                                    >11/12/2018 12:30 PM</td>
                            </tr>
                        </table>

                        <h3 style="color:red">Allergies</h3>
                        <table style="border-collapse:collapse;border-spacing:0;width:100%;">
                            <caption>Allergies</caption>
                            <tr>
                                <th style="border-collapse:collapse;border-spacing:0;font-family:Arial, sans-serif;font-size:14px;font-weight:normal;padding:10px 5px;border-style:solid;border-width:1px;overflow:hidden;word-break:normal;border-color:black;font-weight:bold;background-color:#9b9b9b;border-color:#000000;text-align:left;vertical-align:top"
                                    >Substance/Agent</th>
                                <th style="border-collapse:collapse;border-spacing:0;font-family:Arial, sans-serif;font-size:14px;font-weight:normal;padding:10px 5px;border-style:solid;border-width:1px;overflow:hidden;word-break:normal;border-color:black;font-weight:bold;background-color:#9b9b9b;border-color:#000000;text-align:left;vertical-align:top"
                                    >Reaction Type</th>
                                <th style="border-collapse:collapse;border-spacing:0;font-family:Arial, sans-serif;font-size:14px;font-weight:normal;padding:10px 5px;border-style:solid;border-width:1px;overflow:hidden;word-break:normal;border-color:black;font-weight:bold;background-color:#9b9b9b;border-color:#000000;text-align:left;vertical-align:top"
                                    >Reaction</th>
                                <th style="border-collapse:collapse;border-spacing:0;font-family:Arial, sans-serif;font-size:14px;font-weight:normal;padding:10px 5px;border-style:solid;border-width:1px;overflow:hidden;word-break:normal;border-color:black;font-weight:bold;background-color:#9b9b9b;border-color:#000000;text-align:left;vertical-align:top"
                                    >Reaction Onset Date</th>
                            </tr>
                            <tr>
                                <td style="border-collapse:collapse;border-spacing:0;font-family:Arial, sans-serif;font-size:14px;padding:10px 5px;border-style:solid;border-width:1px;overflow:hidden;word-break:normal;border-color:black;border-color:#000000;text-align:left;vertical-align:top"
                                    >ibuprofen</td>
                                <td style="border-collapse:collapse;border-spacing:0;font-family:Arial, sans-serif;font-size:14px;padding:10px 5px;border-style:solid;border-width:1px;overflow:hidden;word-break:normal;border-color:black;border-color:#000000;text-align:left;vertical-align:top"
                                    >Allergic reaction</td>
                                <td style="border-collapse:collapse;border-spacing:0;font-family:Arial, sans-serif;font-size:14px;padding:10px 5px;border-style:solid;border-width:1px;overflow:hidden;word-break:normal;border-color:black;border-color:#000000;text-align:left;vertical-align:top"
                                    >Anaphylaxis</td>
                                <td style="border-collapse:collapse;border-spacing:0;font-family:Arial, sans-serif;font-size:14px;padding:10px 5px;border-style:solid;border-width:1px;overflow:hidden;word-break:normal;border-color:black;border-color:#000000;text-align:left;vertical-align:top"
                                    >October 2016</td>
                            </tr>
                        </table>

                        <h3>Medicines List</h3>
                        <table style="border-collapse:collapse;border-spacing:0;width:100%;">
                            <caption>Current medicines</caption>
                            <tr>
                                <th style="border-collapse:collapse;border-spacing:0;font-family:Arial, sans-serif;font-size:14px;font-weight:normal;padding:10px 5px;border-style:solid;border-width:1px;overflow:hidden;word-break:normal;border-color:black;font-weight:bold;background-color:#9b9b9b;border-color:#000000;text-align:left;vertical-align:top"
                                    >Medicine</th>
                                <th style="border-collapse:collapse;border-spacing:0;font-family:Arial, sans-serif;font-size:14px;font-weight:normal;padding:10px 5px;border-style:solid;border-width:1px;overflow:hidden;word-break:normal;border-color:black;font-weight:bold;background-color:#9b9b9b;border-color:#000000;text-align:left;vertical-align:top"
                                    >Brand Name</th>
                                <th style="border-collapse:collapse;border-spacing:0;font-family:Arial, sans-serif;font-size:14px;font-weight:normal;padding:10px 5px;border-style:solid;border-width:1px;overflow:hidden;word-break:normal;border-color:black;font-weight:bold;background-color:#9b9b9b;border-color:#000000;text-align:left;vertical-align:top"
                                    >Direction</th>
                                <th style="border-collapse:collapse;border-spacing:0;font-family:Arial, sans-serif;font-size:14px;font-weight:normal;padding:10px 5px;border-style:solid;border-width:1px;overflow:hidden;word-break:normal;border-color:black;font-weight:bold;background-color:#9b9b9b;border-color:#000000;text-align:left;vertical-align:top"
                                    >Medicine Purpose</th>
                                <th style="border-collapse:collapse;border-spacing:0;font-family:Arial, sans-serif;font-size:14px;font-weight:normal;padding:10px 5px;border-style:solid;border-width:1px;overflow:hidden;word-break:normal;border-color:black;font-weight:bold;background-color:#9b9b9b;border-color:#000000;text-align:left;vertical-align:top"
                                    >Medicine Status</th>
                                <th style="border-collapse:collapse;border-spacing:0;font-family:Arial, sans-serif;font-size:14px;font-weight:normal;padding:10px 5px;border-style:solid;border-width:1px;overflow:hidden;word-break:normal;border-color:black;font-weight:bold;background-color:#9b9b9b;border-color:#000000;text-align:left;vertical-align:top"
                                    >Expected End Date</th>
                                <th style="border-collapse:collapse;border-spacing:0;font-family:Arial, sans-serif;font-size:14px;font-weight:normal;padding:10px 5px;border-style:solid;border-width:1px;overflow:hidden;word-break:normal;border-color:black;font-weight:bold;background-color:#9b9b9b;border-color:#000000;text-align:left;vertical-align:top"
                                    >Special Instructions</th>
                                <th style="border-collapse:collapse;border-spacing:0;font-family:Arial, sans-serif;font-size:14px;font-weight:normal;padding:10px 5px;border-style:solid;border-width:1px;overflow:hidden;word-break:normal;border-color:black;font-weight:bold;background-color:#9b9b9b;border-color:#000000;text-align:left;vertical-align:top"
                                    >Medicine Image</th>
                                <th style="border-collapse:collapse;border-spacing:0;font-family:Arial, sans-serif;font-size:14px;font-weight:normal;padding:10px 5px;border-style:solid;border-width:1px;overflow:hidden;word-break:normal;border-color:black;font-weight:bold;background-color:#9b9b9b;border-color:#000000;text-align:left;vertical-align:top"
                                    >Physical Description</th>
                            </tr>
                            <tr>
                                <td style="border-collapse:collapse;border-spacing:0;font-family:Arial, sans-serif;font-size:14px;padding:10px 5px;border-style:solid;border-width:1px;overflow:hidden;word-break:normal;border-color:black;border-color:#000000;text-align:left;vertical-align:top"/>
                                <td style="border-collapse:collapse;border-spacing:0;font-family:Arial, sans-serif;font-size:14px;padding:10px 5px;border-style:solid;border-width:1px;overflow:hidden;word-break:normal;border-color:black;border-color:#000000;text-align:left;vertical-align:top"
                                    >Ferro-Grad C</td>
                                <td style="border-collapse:collapse;border-spacing:0;font-family:Arial, sans-serif;font-size:14px;padding:10px 5px;border-style:solid;border-width:1px;overflow:hidden;word-break:normal;border-color:black;border-color:#000000;text-align:left;vertical-align:top"
                                    >Take one tablet daily</td>
                                <td style="border-collapse:collapse;border-spacing:0;font-family:Arial, sans-serif;font-size:14px;padding:10px 5px;border-style:solid;border-width:1px;overflow:hidden;word-break:normal;border-color:black;border-color:#000000;text-align:left;vertical-align:top"
                                    >Iron supplement</td>
                                <td style="border-collapse:collapse;border-spacing:0;font-family:Arial, sans-serif;font-size:14px;padding:10px 5px;border-style:solid;border-width:1px;overflow:hidden;word-break:normal;border-color:black;border-color:#000000;text-align:left;vertical-align:top"
                                    >Unchanged</td>
                                <td style="border-collapse:collapse;border-spacing:0;font-family:Arial, sans-serif;font-size:14px;padding:10px 5px;border-style:solid;border-width:1px;overflow:hidden;word-break:normal;border-color:black;border-color:#000000;text-align:left;vertical-align:top"/>
                                <td style="border-collapse:collapse;border-spacing:0;font-family:Arial, sans-serif;font-size:14px;padding:10px 5px;border-style:solid;border-width:1px;overflow:hidden;word-break:normal;border-color:black;border-color:#000000;text-align:left;vertical-align:top"/>
                                <td style="border-collapse:collapse;border-spacing:0;font-family:Arial, sans-serif;font-size:14px;padding:10px 5px;border-style:solid;border-width:1px;overflow:hidden;word-break:normal;border-color:black;border-color:#000000;text-align:left;vertical-align:top"/>
                                <td style="border-collapse:collapse;border-spacing:0;font-family:Arial, sans-serif;font-size:14px;padding:10px 5px;border-style:solid;border-width:1px;overflow:hidden;word-break:normal;border-color:black;border-color:#000000;text-align:left;vertical-align:top"/>
                            </tr>
                            <tr>
                                <td style="border-collapse:collapse;border-spacing:0;font-family:Arial, sans-serif;font-size:14px;padding:10px 5px;border-style:solid;border-width:1px;overflow:hidden;word-break:normal;border-color:black;border-color:#000000;text-align:left;vertical-align:top"
                                    >Amoxicillin 875 mg + clavulanic acid 125 mg tablet</td>
                                <td style="border-collapse:collapse;border-spacing:0;font-family:Arial, sans-serif;font-size:14px;padding:10px 5px;border-style:solid;border-width:1px;overflow:hidden;word-break:normal;border-color:black;border-color:#000000;text-align:left;vertical-align:top"
                                    >Augmentin Duo Forte</td>
                                <td style="border-collapse:collapse;border-spacing:0;font-family:Arial, sans-serif;font-size:14px;padding:10px 5px;border-style:solid;border-width:1px;overflow:hidden;word-break:normal;border-color:black;border-color:#000000;text-align:left;vertical-align:top"
                                    >Take one tablet twice a day</td>
                                <td style="border-collapse:collapse;border-spacing:0;font-family:Arial, sans-serif;font-size:14px;padding:10px 5px;border-style:solid;border-width:1px;overflow:hidden;word-break:normal;border-color:black;border-color:#000000;text-align:left;vertical-align:top"
                                    >Chest infection</td>
                                <td style="border-collapse:collapse;border-spacing:0;font-family:Arial, sans-serif;font-size:14px;padding:10px 5px;border-style:solid;border-width:1px;overflow:hidden;word-break:normal;border-color:black;border-color:#000000;text-align:left;vertical-align:top"
                                    >New</td>
                                <td style="border-collapse:collapse;border-spacing:0;font-family:Arial, sans-serif;font-size:14px;padding:10px 5px;border-style:solid;border-width:1px;overflow:hidden;word-break:normal;border-color:black;border-color:#000000;text-align:left;vertical-align:top"
                                    >20/01/2019</td>
                                <td style="border-collapse:collapse;border-spacing:0;font-family:Arial, sans-serif;font-size:14px;padding:10px 5px;border-style:solid;border-width:1px;overflow:hidden;word-break:normal;border-color:black;border-color:#000000;text-align:left;vertical-align:top"/>
                                <td style="border-collapse:collapse;border-spacing:0;font-family:Arial, sans-serif;font-size:14px;padding:10px 5px;border-style:solid;border-width:1px;overflow:hidden;word-break:normal;border-color:black;border-color:#000000;text-align:left;vertical-align:top"/>
                                <td style="border-collapse:collapse;border-spacing:0;font-family:Arial, sans-serif;font-size:14px;padding:10px 5px;border-style:solid;border-width:1px;overflow:hidden;word-break:normal;border-color:black;border-color:#000000;text-align:left;vertical-align:top"
                                />
                            </tr>
                            <tr>
                                <td style="border-collapse:collapse;border-spacing:0;font-family:Arial, sans-serif;font-size:14px;padding:10px 5px;border-style:solid;border-width:1px;overflow:hidden;word-break:normal;border-color:black;border-color:#000000;text-align:left;vertical-align:top"
                                    >Metformin 500mg tablet</td>
                                <td style="border-collapse:collapse;border-spacing:0;font-family:Arial, sans-serif;font-size:14px;padding:10px 5px;border-style:solid;border-width:1px;overflow:hidden;word-break:normal;border-color:black;border-color:#000000;text-align:left;vertical-align:top"
                                    >Sandoz</td>
                                <td style="border-collapse:collapse;border-spacing:0;font-family:Arial, sans-serif;font-size:14px;padding:10px 5px;border-style:solid;border-width:1px;overflow:hidden;word-break:normal;border-color:black;border-color:#000000;text-align:left;vertical-align:top"
                                    >Take one tablet twice a day</td>
                                <td style="border-collapse:collapse;border-spacing:0;font-family:Arial, sans-serif;font-size:14px;padding:10px 5px;border-style:solid;border-width:1px;overflow:hidden;word-break:normal;border-color:black;border-color:#000000;text-align:left;vertical-align:top"
                                    >Reduce blood sugar</td>
                                <td style="border-collapse:collapse;border-spacing:0;font-family:Arial, sans-serif;font-size:14px;padding:10px 5px;border-style:solid;border-width:1px;overflow:hidden;word-break:normal;border-color:black;border-color:#000000;text-align:left;vertical-align:top"
                                    >Amended</td>
                                <td style="border-collapse:collapse;border-spacing:0;font-family:Arial, sans-serif;font-size:14px;padding:10px 5px;border-style:solid;border-width:1px;overflow:hidden;word-break:normal;border-color:black;border-color:#000000;text-align:left;vertical-align:top"/>
                                <td style="border-collapse:collapse;border-spacing:0;font-family:Arial, sans-serif;font-size:14px;padding:10px 5px;border-style:solid;border-width:1px;overflow:hidden;word-break:normal;border-color:black;border-color:#000000;text-align:left;vertical-align:top"/>
                                <td style="border-collapse:collapse;border-spacing:0;font-family:Arial, sans-serif;font-size:14px;padding:10px 5px;border-style:solid;border-width:1px;overflow:hidden;word-break:normal;border-color:black;border-color:#000000;text-align:left;vertical-align:top"/>
                                <td style="border-collapse:collapse;border-spacing:0;font-family:Arial, sans-serif;font-size:14px;padding:10px 5px;border-style:solid;border-width:1px;overflow:hidden;word-break:normal;border-color:black;border-color:#000000;text-align:left;vertical-align:top"
                                    >White and round with 227 imprinted</td>
                            </tr>
                            <tr>
                                <td style="border-collapse:collapse;border-spacing:0;font-family:Arial, sans-serif;font-size:14px;padding:10px 5px;border-style:solid;border-width:1px;overflow:hidden;word-break:normal;border-color:black;border-color:#000000;text-align:left;vertical-align:top"
                                    >Multi-vitamins</td>
                                <td style="border-collapse:collapse;border-spacing:0;font-family:Arial, sans-serif;font-size:14px;padding:10px 5px;border-style:solid;border-width:1px;overflow:hidden;word-break:normal;border-color:black;border-color:#000000;text-align:left;vertical-align:top"/>
                                <td style="border-collapse:collapse;border-spacing:0;font-family:Arial, sans-serif;font-size:14px;padding:10px 5px;border-style:solid;border-width:1px;overflow:hidden;word-break:normal;border-color:black;border-color:#000000;text-align:left;vertical-align:top"
                                    >Take one tablet daily</td>
                                <td style="border-collapse:collapse;border-spacing:0;font-family:Arial, sans-serif;font-size:14px;padding:10px 5px;border-style:solid;border-width:1px;overflow:hidden;word-break:normal;border-color:black;border-color:#000000;text-align:left;vertical-align:top"/>
                                <td style="border-collapse:collapse;border-spacing:0;font-family:Arial, sans-serif;font-size:14px;padding:10px 5px;border-style:solid;border-width:1px;overflow:hidden;word-break:normal;border-color:black;border-color:#000000;text-align:left;vertical-align:top"
                                    >Unchanged</td>
                                <td style="border-collapse:collapse;border-spacing:0;font-family:Arial, sans-serif;font-size:14px;padding:10px 5px;border-style:solid;border-width:1px;overflow:hidden;word-break:normal;border-color:black;border-color:#000000;text-align:left;vertical-align:top"/>
                                <td style="border-collapse:collapse;border-spacing:0;font-family:Arial, sans-serif;font-size:14px;padding:10px 5px;border-style:solid;border-width:1px;overflow:hidden;word-break:normal;border-color:black;border-color:#000000;text-align:left;vertical-align:top"/>
                                <td style="border-collapse:collapse;border-spacing:0;font-family:Arial, sans-serif;font-size:14px;padding:10px 5px;border-style:solid;border-width:1px;overflow:hidden;word-break:normal;border-color:black;border-color:#000000;text-align:left;vertical-align:top"/>
                                <td style="border-collapse:collapse;border-spacing:0;font-family:Arial, sans-serif;font-size:14px;padding:10px 5px;border-style:solid;border-width:1px;overflow:hidden;word-break:normal;border-color:black;border-color:#000000;text-align:left;vertical-align:top"
                                />
                            </tr>
                            <tr>
                                <td style="border-collapse:collapse;border-spacing:0;font-family:Arial, sans-serif;font-size:14px;padding:10px 5px;border-style:solid;border-width:1px;overflow:hidden;word-break:normal;border-color:black;border-color:#000000;text-align:left;vertical-align:top"
                                    >Paracetamol 665mg tablet</td>
                                <td style="border-collapse:collapse;border-spacing:0;font-family:Arial, sans-serif;font-size:14px;padding:10px 5px;border-style:solid;border-width:1px;overflow:hidden;word-break:normal;border-color:black;border-color:#000000;text-align:left;vertical-align:top"
                                    >Panadol Osteo</td>
                                <td style="border-collapse:collapse;border-spacing:0;font-family:Arial, sans-serif;font-size:14px;padding:10px 5px;border-style:solid;border-width:1px;overflow:hidden;word-break:normal;border-color:black;border-color:#000000;text-align:left;vertical-align:top"
                                    >Take two tablets every 6 to 8 hours when required</td>
                                <td style="border-collapse:collapse;border-spacing:0;font-family:Arial, sans-serif;font-size:14px;padding:10px 5px;border-style:solid;border-width:1px;overflow:hidden;word-break:normal;border-color:black;border-color:#000000;text-align:left;vertical-align:top"
                                    >Osteoarthritis, pain relief</td>
                                <td style="border-collapse:collapse;border-spacing:0;font-family:Arial, sans-serif;font-size:14px;padding:10px 5px;border-style:solid;border-width:1px;overflow:hidden;word-break:normal;border-color:black;border-color:#000000;text-align:left;vertical-align:top"
                                    >Unchanged</td>
                                <td style="border-collapse:collapse;border-spacing:0;font-family:Arial, sans-serif;font-size:14px;padding:10px 5px;border-style:solid;border-width:1px;overflow:hidden;word-break:normal;border-color:black;border-color:#000000;text-align:left;vertical-align:top"/>
                                <td style="border-collapse:collapse;border-spacing:0;font-family:Arial, sans-serif;font-size:14px;padding:10px 5px;border-style:solid;border-width:1px;overflow:hidden;word-break:normal;border-color:black;border-color:#000000;text-align:left;vertical-align:top"
                                    >No more than 6 tablets in 24 hours</td>
                                <td style="border-collapse:collapse;border-spacing:0;font-family:Arial, sans-serif;font-size:14px;padding:10px 5px;border-style:solid;border-width:1px;overflow:hidden;word-break:normal;border-color:black;border-color:#000000;text-align:left;vertical-align:top"/>
                                <td style="border-collapse:collapse;border-spacing:0;font-family:Arial, sans-serif;font-size:14px;padding:10px 5px;border-style:solid;border-width:1px;overflow:hidden;word-break:normal;border-color:black;border-color:#000000;text-align:left;vertical-align:top"
                                />
                            </tr>
                        </table>

                        <table style="border-collapse:collapse;border-spacing:0;width:100%;">
                            <caption>Ceased medicines</caption>
                            <tr>
                                <th style="border-collapse:collapse;border-spacing:0;font-family:Arial, sans-serif;font-size:14px;font-weight:normal;padding:10px 5px;border-style:solid;border-width:1px;overflow:hidden;word-break:normal;border-color:black;font-weight:bold;background-color:#9b9b9b;border-color:#000000;text-align:left;vertical-align:top"
                                    >Medicine</th>
                                <th style="border-collapse:collapse;border-spacing:0;font-family:Arial, sans-serif;font-size:14px;font-weight:normal;padding:10px 5px;border-style:solid;border-width:1px;overflow:hidden;word-break:normal;border-color:black;font-weight:bold;background-color:#9b9b9b;border-color:#000000;text-align:left;vertical-align:top"
                                    >Reason for ceasing medicine</th>
                                <th style="border-collapse:collapse;border-spacing:0;font-family:Arial, sans-serif;font-size:14px;font-weight:normal;padding:10px 5px;border-style:solid;border-width:1px;overflow:hidden;word-break:normal;border-color:black;font-weight:bold;background-color:#9b9b9b;border-color:#000000;text-align:left;vertical-align:top"
                                    >Ceased date</th>
                            </tr>
                            <tr>
                                <td style="border-collapse:collapse;border-spacing:0;font-family:Arial, sans-serif;font-size:14px;padding:10px 5px;border-style:solid;border-width:1px;overflow:hidden;word-break:normal;border-color:black;border-color:#000000;text-align:left;vertical-align:top"
                                    >Paracetamol 500 mg tablet</td>
                                <td style="border-collapse:collapse;border-spacing:0;font-family:Arial, sans-serif;font-size:14px;padding:10px 5px;border-style:solid;border-width:1px;overflow:hidden;word-break:normal;border-color:black;border-color:#000000;text-align:left;vertical-align:top"
                                    >Stopped; duplicated medicine</td>
                                <td style="border-collapse:collapse;border-spacing:0;font-family:Arial, sans-serif;font-size:14px;padding:10px 5px;border-style:solid;border-width:1px;overflow:hidden;word-break:normal;border-color:black;border-color:#000000;text-align:left;vertical-align:top"
                                    >Dec 2018</td>
                            </tr>
                            <tr>
                                <td style="border-collapse:collapse;border-spacing:0;font-family:Arial, sans-serif;font-size:14px;padding:10px 5px;border-style:solid;border-width:1px;overflow:hidden;word-break:normal;border-color:black;border-color:#000000;text-align:left;vertical-align:top"
                                    >ibuprofen</td>
                                <td style="border-collapse:collapse;border-spacing:0;font-family:Arial, sans-serif;font-size:14px;padding:10px 5px;border-style:solid;border-width:1px;overflow:hidden;word-break:normal;border-color:black;border-color:#000000;text-align:left;vertical-align:top"
                                    >Allergic Reaction</td>
                                <td style="border-collapse:collapse;border-spacing:0;font-family:Arial, sans-serif;font-size:14px;padding:10px 5px;border-style:solid;border-width:1px;overflow:hidden;word-break:normal;border-color:black;border-color:#000000;text-align:left;vertical-align:top"
                                />
                            </tr>
                        </table>
                        <p>Packed medicines: No medicines packed in dose administration aid</p>
                        <p>Please review this list with your pharmacist on or soon after
                            02/Apr/2019. Community pharmacy medicine review</p>
                    </div>
                </text>
                <identifier>
                    <system value="urn:ietf:rfc:3986"/>
                    <value value="urn:uuid:b43fdab3-9c03-4bd1-96bf-cd95fa1f58de"/>
                </identifier>
                <status value="final"/>
                <type>
                    <coding>
                        <system value="http://loinc.org"/>
                        <code value="56445-0"/>
                    </coding>
                    <text value="Pharmacist Shared Medicines List"/>
                </type>
                <category>
                    <coding>
                        <system value="http://loinc.org"/>
                        <code value="56445-0"/>
                    </coding>
                </category>
                <subject>
                    <!-- reference to Bundle entry of Patient resource -->
                    <reference value="urn:uuid:43acc1fd-9f9d-4f2f-8649-c290ac7ff847"/>
                </subject>
                <encounter>
                    <!-- reference to Bundle entry of Encounter resource -->
                    <reference value="urn:uuid:038f9aaa-6c3d-4681-b9de-455de06a86d3"/>
                </encounter>
                <date value="2018-12-11T13:30:00+10:00"/>
                <author>
                    <!-- reference to Bundle entry of Practitioner resource -->
                    <reference value="urn:uuid:eebd7c94-e124-4c2b-95dc-a6aebbe7bb4d"/>
                </author>
                <title value="Pharmacist Shared Medicines List"/>
                <attester>
                    <mode value="legal"/>
                    <time value="2018-12-11T13:30:00+10:00"/>
                    <party>
                        <!-- reference to Bundle entry of Practitioner resource -->
                        <reference value="urn:uuid:eebd7c94-e124-4c2b-95dc-a6aebbe7bb4d"/>
                    </party>
                </attester>
                <custodian>
                    <!-- reference to Bundle entry of Organization resource -->
                    <reference value="urn:uuid:24391534-dbe5-44f0-af74-07ca016e7446"/>
                </custodian>
                <section>
                    <title value="Medicines List"/>
                    <code>
                        <coding>
                            <system value="http://loinc.org"/>
                            <code value="10160-0"/>
                            <display value="History of Medication use Narrative"/>
                        </coding>
                    </code>
                    <text>
                        <status value="additional"/>
                        <div xmlns="http://www.w3.org/1999/xhtml">
                            <table>
                                <caption>Current medicines</caption>
                                <thead>
                                    <tr>
                                        <th>Medicine</th>
                                        <th>Brand name</th>
                                        <th>Direction</th>
                                        <th>Medicine purpose</th>
                                        <th>Medicine status</th>
                                        <th>Expected end date</th>
                                        <th>Special instructions</th>
                                        <th>Medicine Image</th>
                                        <th>Physical Description</th>
                                    </tr>
                                </thead>
                                <tbody>
                                    <tr>
                                        <td/>
                                        <td>Ferro-Grad C</td>
                                        <td>Take one tablet daily</td>
                                        <td>Iron supplement</td>
                                        <td>Unchanged</td>
                                        <td/>
                                        <td/>
                                        <td/>
                                        <td/>
                                    </tr>
                                    <tr>
                                        <td>Amoxicillin 875 mg + clavulanic acid 125 mg tablet</td>
                                        <td>Augmentin Duo Forte</td>
                                        <td>Take one tablet twice a day</td>
                                        <td>Chest infection</td>
                                        <td>New</td>
                                        <td>20/01/2019</td>
                                        <td/>
                                        <td/>
                                        <td/>
                                    </tr>
                                    <tr>
                                        <td>Metformin 500mg tablet</td>
                                        <td>Sandoz</td>
                                        <td>Take one tablet twice a day</td>
                                        <td>Reduce blood sugar</td>
                                        <td>Amended</td>
                                        <td/>
                                        <td/>
                                        <td/>
                                        <td>White and round with 227 imprinted</td>
                                    </tr>
                                    <tr>
                                        <td>Multi-vitamins</td>
                                        <td/>
                                        <td>Take one tablet daily</td>
                                        <td/>
                                        <td>Unchanged</td>
                                        <td/>
                                        <td/>
                                        <td/>
                                        <td/>
                                    </tr>
                                    <tr>
                                        <td>Paracetamol 665 mg tablet</td>
                                        <td>Panadol Osteo</td>
                                        <td>Take two tablets every 6 to 8 hours when required</td>
                                        <td>Osteoarthritis, pain relief</td>
                                        <td>Unchanged</td>
                                        <td/>
                                        <td>No more than 6 tablets in 24 hours</td>
                                        <td/>
                                        <td/>
                                    </tr>
                                </tbody>
                            </table>
                            <table>
                                <caption>Ceased medicines</caption>
                                <thead>
                                    <tr>
                                        <th>Medicine</th>
                                        <th>Reason for ceasing medicine</th>
                                        <th>Ceased date</th>
                                    </tr>
                                </thead>
                                <tbody>
                                    <tr>
                                        <td/>
                                        <td>Paracetamol 500mg tablet</td>
                                        <td>Stopped; duplicated medicine</td>
                                        <td>Dec 2018</td>
                                    </tr>
                                    <tr>
                                        <td>Ibuprofen</td>
                                        <td>Allergic Reaction</td>
                                        <td/>
                                    </tr>
                                </tbody>
                            </table>
                            <p>Packed medicines: No medicines packed in dose administration aid</p>
                            <p>Please review this list with your pharmacist on or soon after
                                02/Apr/2019. Community pharmacy medicine review</p>
                        </div>
                    </text>
                    <entry>
                        <!-- reference to Bundle entry of List resource -->
                        <reference value="urn:uuid:e3677c50-8940-4793-bc43-72a33e5b6460"/>
                    </entry>
                </section>
                <section>
                    <title value="Allergies"/>
                    <code>
                        <coding>
                            <system value="http://loinc.org"/>
                            <code value="48765-2"/>
                        </coding>
                    </code>
                    <text>
                        <status value="additional"/>
                        <div xmlns="http://www.w3.org/1999/xhtml">
                            <table>
                                <caption>Allergies</caption>
                                <thead>
                                    <tr>
                                        <th>Substance/Agent</th>
                                        <th>Reaction Type</th>
                                        <th>Reaction</th>
                                        <th>Reaction Onset Date</th>
                                    </tr>
                                </thead>
                                <tbody>
                                    <tr>
                                        <td>Ibuprofen</td>
                                        <td>Allergic reaction</td>
                                        <td>Anaphylaxis</td>
                                        <td>October 2016</td>
                                    </tr>
                                </tbody>
                            </table>
                        </div>
                    </text>
                    <entry>
                        <!-- reference to Bundle entry of AllergyIntolerance resource -->
                        <reference value="urn:uuid:7f834da9-63f5-4a66-a847-a32c366701ff"/>
                    </entry>
                </section>
            </Composition>
        </resource>
    </entry>
    <entry>
        <fullUrl value="urn:uuid:43acc1fd-9f9d-4f2f-8649-c290ac7ff847"/>
        <resource>
            <Patient xmlns="http://hl7.org/fhir">
                <id value="43acc1fd-9f9d-4f2f-8649-c290ac7ff847"/>
                <extension url="http://hl7.org.au/fhir/StructureDefinition/indigenous-status">
                    <valueCoding>
                        <system
                            value="https://healthterminologies.gov.au/fhir/CodeSystem/australian-indigenous-status-1"/>
                        <code value="4"/>
                        <display value="Neither Aboriginal nor Torres Strait Islander origin"/>
                    </valueCoding>
                </extension>
                <identifier>
                    <use value="official"/>
                    <type>
                        <coding>
                            <system value="http://terminology.hl7.org/CodeSystem/v2-0203"/>
                            <code value="NI"/>
                            <display value="National unique individual identifier"/>
                        </coding>
                    </type>
                    <system value="http://ns.electronichealth.net.au/id/hi/ihi/1.0"/>
                    <value value="8003608333563104"/>
                </identifier>
                <identifier>
                    <type>
                        <coding>
                            <system value="http://terminology.hl7.org/CodeSystem/v2-0203"/>
                            <code value="MC"/>
                            <display value="Patient&apos;s Medicare number"/>
                        </coding>
                    </type>
                    <system value="http://ns.electronichealth.net.au/id/medicare-number"/>
                    <value value="2953307121"/>
                    <period>
                        <end value="2024-03-31"/>
                    </period>
                </identifier>
                <name>
                    <family value="PRIEST"/>
                    <given value="Mac"/>
                </name>
                <gender value="male"/>
                <birthDate value="1989-03-09"/>
                <generalPractitioner>
                    <!-- reference to Bundle entry of Organization resource -->
                    <reference value="urn:uuid:b738af06-18f5-48b8-a0d6-96d0e97c0634"/>
                </generalPractitioner>
            </Patient>
        </resource>
    </entry>

    <entry>
        <fullUrl value="urn:uuid:6312677b-2e4a-4841-a986-915905e01931"/>
        <resource>
            <Practitioner xmlns="http://hl7.org/fhir">
                <id value="6312677b-2e4a-4841-a986-915905e01931"/>
                <identifier>
                    <type>
                        <coding>
                            <system value="http://terminology.hl7.org/CodeSystem/v2-0203"/>
                            <code value="NPI"/>
                            <display value="National provider identifier"/>
                        </coding>
                        <text value="HPI-I"/>
                    </type>
                    <system value="http://ns.electronichealth.net.au/id/hi/hpii/1.0"/>
                    <value value="8003611566708354"/>
                </identifier>
                <name>
                    <family value="Pharmacist"/>
                    <given value="Representative"/>
                    <prefix value="Mr."/>
                </name>
                <qualification>
                    <code>
                        <text value="Bachelor of Pharmacy"/>
                    </code>
                </qualification>
            </Practitioner>
        </resource>
    </entry>

    <entry>
        <fullUrl value="urn:uuid:eebd7c94-e124-4c2b-95dc-a6aebbe7bb4d"/>
        <resource>
            <PractitionerRole xmlns="http://hl7.org/fhir">
                <id value="eebd7c94-e124-4c2b-95dc-a6aebbe7bb4d"/>
                <identifier>
                    <type>
                        <coding>
                            <system value="http://terminology.hl7.org/CodeSystem/v2-0203"/>
                            <code value="NPI"/>
                            <display value="National provider identifier"/>
                        </coding>
                        <text value="HPI-I"/>
                    </type>
                    <system value="http://ns.electronichealth.net.au/id/hi/hpii/1.0"/>
                    <value value="8003611566708354"/>
                </identifier>
                <practitioner>
                    <!-- reference to Bundle entry of Practitioner resource -->
                    <reference value="urn:uuid:6312677b-2e4a-4841-a986-915905e01931"/>
                </practitioner>
                <organization>
                    <!-- reference to Bundle entry of Organization resource -->
                    <reference value="urn:uuid:24391534-dbe5-44f0-af74-07ca016e7446"/>
                </organization>
                <code>
                    <coding>
                        <system value="http://www.abs.gov.au/ausstats/abs@.nsf/mf/1220.0"/>
                        <code value="251513"/>
                        <display value="Retail Pharmacist"/>
                    </coding>
                    <text value="Pharmacist"/>
                </code>
                <telecom>
                    <system value="email"/>
                    <value value="pha@gmail.com"/>
                    <use value="work"/>
                </telecom>
            </PractitionerRole>
        </resource>
    </entry>
    <entry>
        <fullUrl value="urn:uuid:24391534-dbe5-44f0-af74-07ca016e7446"/>
        <resource>
            <Organization xmlns="http://hl7.org/fhir">
                <id value="24391534-dbe5-44f0-af74-07ca016e7446"/>
                <identifier>
                    <type>
                        <coding>
                            <system value="http://terminology.hl7.org.au/CodeSystem/v2-0203"/>
                            <code value="NOI"/>
                        </coding>
                        <text value="HPI-O"/>
                    </type>
                    <system value="http://ns.electronichealth.net.au/id/hi/hpio/1.0"/>
                    <value value="8003629900033370"/>
                </identifier>
                <type>
                    <coding>
                        <system value="http://www.abs.gov.au/ausstats/abs@.nsf/mf/1292.0"/>
                        <code value="4271"/>
                        <display value="Pharmaceutical, Cosmetic and Toiletry Goods Retailing"/>
                    </coding>
                    <text value="Retail Pharmacy"/>
                </type>
                <name value="Test Org -DigitalHealth 6"/>
                <address>
                    <use value="work"/>
                    <line value="570 Whatcha St"/>
                    <city value="GLEBE"/>
                    <state value="NSW"/>
                    <postalCode value="2037"/>
                    <country value="AU"/>
                </address>
            </Organization>
        </resource>
    </entry>

    <entry>
        <fullUrl value="urn:uuid:b738af06-18f5-48b8-a0d6-96d0e97c0634"/>
        <resource>
            <Organization xmlns="http://hl7.org/fhir">
                <id value="b738af06-18f5-48b8-a0d6-96d0e97c0634"/>
                <type>
                    <coding>
                        <system value="http://snomed.info/sct"/>
                        <code value="288565001"/>
                        <display value="Medical centre"/>
                    </coding>
                </type>
                <name value="A Small Main Street Medical Centre"/>
            </Organization>
        </resource>
    </entry>

    <entry>
        <fullUrl value="urn:uuid:038f9aaa-6c3d-4681-b9de-455de06a86d3"/>
        <resource>
            <Encounter xmlns="http://hl7.org/fhir">
                <id value="038f9aaa-6c3d-4681-b9de-455de06a86d3"/>
                <status value="finished"/>
                <class>
                    <system value="http://terminology.hl7.org/CodeSystem/v3-ActCode"/>
                    <code value="AMB"/>
                    <display value="ambulatory"/>                    
                </class>
                <type>
                    <coding>
                        <system value="http://snomed.info/sct"/>
                        <code value="1348961000168104"/>
                        <display value="Community pharmacy medicines review"/>
                    </coding>
                    <text value="Community pharmacy medicine review"/>
                </type>
                <serviceType>
                    <coding>
                        <system value="http://snomed.info/sct"/>
                        <code value="182836005"/>
                        <display value="Review of medication"/>
                    </coding>
                    <text value="Medicines review"/>
                </serviceType>
                <subject>
                    <!-- reference to Bundle entry of Patient resource -->
                    <reference value="urn:uuid:43acc1fd-9f9d-4f2f-8649-c290ac7ff847"/>
                </subject>
                <participant>
                    <type>
                        <coding>
                            <system value="http://terminology.hl7.org/CodeSystem/v3-ParticipationType"/>
                            <code value="PPRF"/>
                            <display value="primary performer"/>   
                        </coding>
                    </type>
                    <individual>
                        <reference value="urn:uuid:eebd7c94-e124-4c2b-95dc-a6aebbe7bb4d"/>
                    </individual>
                </participant>
                <period>
                    <start value="2018-12-11T10:00:00+10:00"/>
                    <end value="2018-12-11T13:30:00+10:00"/>
                </period>
            </Encounter>
        </resource>
    </entry>

    <entry>
        <fullUrl value="urn:uuid:e3677c50-8940-4793-bc43-72a33e5b6460"/>
        <resource>
            <List xmlns="http://hl7.org/fhir">
                <id value="e3677c50-8940-4793-bc43-72a33e5b6460"/>
                <meta>
                    <profile value="http://ns.electronichealth.net.au/fhir/StructureDefinition/dh-list-medication-use-pmr-1"/>
                </meta>
                <language value="en-AU"/>
                <text>
                    <status value="additional"/>
                    <div xmlns="http://www.w3.org/1999/xhtml">
                        <table>
                            <caption>Current medicines</caption>
                            <thead>
                                <tr>
                                    <th>Medicine</th>
                                    <th>Brand name</th>
                                    <th>Direction</th>
                                    <th>Medicine purpose</th>
                                    <th>Medicine status</th>
                                    <th>Expected end date</th>
                                    <th>Special instructions</th>
                                    <th>Medicine Image</th>
                                    <th>Physical Description</th>
                                </tr>
                            </thead>
                            <tbody>
                                <tr>
                                    <td/>
                                    <td>Ferro-Grad C</td>
                                    <td>Take one tablet daily</td>
                                    <td>Iron supplement</td>
                                    <td>Unchanged</td>
                                    <td/>
                                    <td/>
                                    <td/>
                                    <td/>
                                </tr>
                                <tr>
                                    <td>Amoxicillin 875 mg + clavulanic acid 125 mg tablet</td>
                                    <td>Augmentin Duo Forte</td>
                                    <td>Take one tablet twice a day</td>
                                    <td>Chest infection</td>
                                    <td>New</td>
                                    <td>20/01/2019</td>
                                    <td/>
                                    <td/>
                                    <td/>
                                </tr>
                                <tr>
                                    <td>Metformin 500mg tablet</td>
                                    <td>Sandoz</td>
                                    <td>Take one tablet twice a day</td>
                                    <td>Reduce blood sugar</td>
                                    <td>Amended</td>
                                    <td/>
                                    <td/>
                                    <td/>
                                    <td>White and round with 227 imprinted</td>
                                </tr>
                                <tr>
                                    <td>Multi-vitamins</td>
                                    <td/>
                                    <td>Take one tablet daily</td>
                                    <td/>
                                    <td>Unchanged</td>
                                    <td/>
                                    <td/>
                                    <td/>
                                    <td/>
                                </tr>
                                <tr>
                                    <td>Paracetamol 665 mg tablet</td>
                                    <td>Panadol Osteo</td>
                                    <td>Take two tablets every 6 to 8 hours when required</td>
                                    <td>Osteoarthritis, pain relief</td>
                                    <td>Unchanged</td>
                                    <td/>
                                    <td>No more than 6 tablets in 24 hours</td>
                                    <td/>
                                    <td/>
                                </tr>
                            </tbody>
                        </table>
                        <table>
                            <caption>Ceased medicines</caption>
                            <thead>
                                <tr>
                                    <th>Medicine</th>
                                    <th>Reason for ceasing medicine</th>
                                    <th>Ceased date</th>
                                </tr>
                            </thead>
                            <tbody>
                                <tr>
                                    <td/>
                                    <td>Paracetamol 500mg tablet</td>
                                    <td>Stopped; duplicated medicine</td>
                                    <td>Dec 2018</td>
                                </tr>
                                <tr>
                                    <td>Ibuprofen</td>
                                    <td>Allergic Reaction</td>
                                    <td/>
                                </tr>
                            </tbody>
                        </table>
                        <p>Packed medicines: No medicines packed in dose administration aid</p>
                        <p>Please review this list with your pharmacist on or soon after
                            02/Apr/2019. Community pharmacy medicine review</p>
                    </div>
                </text>
                <extension url="http://ns.electronichealth.net.au/fhir/StructureDefinition/dh-packed-in-daa-1">
                    <valueCodeableConcept>
                        <coding>
                            <system value="http://snomed.info/sct"/>
                            <code value="1469421000168108"/>
                            <display value="No medicines on list packed in dose administration aid"/>
                        </coding>
                    </valueCodeableConcept>
                </extension>
                <status value="current"/>
                <mode value="snapshot"/>
                <title value="Medicines List"/>
                <code>
                    <coding>
                        <system value="http://loinc.org"/>
                        <code value="10160-0"/>
                        <display value="History of Medication use Narrative"/>
                    </coding>
                </code>
                <subject>
                    <!-- reference to Bundle entry of Patient resource -->
                    <reference value="urn:uuid:43acc1fd-9f9d-4f2f-8649-c290ac7ff847"/>
                </subject>
                <encounter>
                    <!-- reference to Bundle entry of Encounter resource -->
                    <reference value="urn:uuid:038f9aaa-6c3d-4681-b9de-455de06a86d3"/>
                </encounter>
                <date value="2018-12-11T13:30:00+10:00"/>
                <source>
                    <!-- reference to Bundle entry of Practitioner resource -->
                    <reference value="urn:uuid:eebd7c94-e124-4c2b-95dc-a6aebbe7bb4d"/>
                </source>
                <note>
                    <text value="Please review this list with your pharmacist on or soon
                        after 02/Apr/2019."/>
                </note>
                <entry>
                    <flag>
                        <coding>
                            <system value="http://terminology.hl7.org.au/CodeSystem/medicine-item-change"/>
                            <code value="nochange"/>
                            <display value="Unchanged"/>
                        </coding>
                    </flag>
                    <item>
                        <!-- reference to Bundle entry of MedicationStatement resource -->
                        <reference value="urn:uuid:32def593-e104-4cee-b8f5-d1f923efd94b"/>
                    </item>
                </entry>
                <entry>
                    <extension url="http://hl7.org.au/fhir/StructureDefinition/change-description">
                        <valueString value="Chest infection"/>
                    </extension>
                    <flag>
                        <coding>
                            <system value="http://terminology.hl7.org.au/CodeSystem/medicine-item-change"/>
                            <code value="new"/>
                            <display value="New"/>
                        </coding>
                    </flag>
                    <item>
                        <!-- reference to Bundle entry of MedicationStatement resource -->
                        <reference value="urn:uuid:f02c54ad-3562-4f7b-8956-de16769a2a88"/>
                    </item>
                </entry>
                <entry>
                    <extension url="http://hl7.org.au/fhir/StructureDefinition/change-description">
                        <valueString value="Dose increased from 250mg to 500mg"/>
                    </extension>
                    <flag>
                        <coding>
                            <system value="http://terminology.hl7.org.au/CodeSystem/medicine-item-change"/>
                            <code value="amended"/>
                            <display value="Amended"/>
                        </coding>
                    </flag>
                    <item>
                        <!-- reference to Bundle entry of MedicationStatement resource -->
                        <reference value="urn:uuid:f27faa7d-0433-484a-94ab-5a3f966bd7b1"/>
                    </item>
                </entry>
                <entry>
                    <flag>
                        <coding>
                            <system value="http://terminology.hl7.org.au/CodeSystem/medicine-item-change"/>
                            <code value="nochange"/>
                            <display value="Unchanged"/>
                        </coding>
                    </flag>
                    <item>
                        <!-- reference to Bundle entry of MedicationStatement resource -->
                        <reference value="urn:uuid:006679bd-44a9-49df-82ba-a41db0cd6298"/>
                    </item>
                </entry>
                <entry>
                    <flag>
                        <coding>
                            <system value="http://terminology.hl7.org.au/CodeSystem/medicine-item-change"/>
                            <code value="nochange"/>
                            <display value="Unchanged"/>
                        </coding>
                    </flag>
                    <item>
                        <!-- reference to Bundle entry of MedicationStatement resource -->
                        <reference value="urn:uuid:d14a5c15-87c9-4cf8-9047-657189898273"/>
                    </item>
                </entry>
                <entry>
                    <extension url="http://hl7.org.au/fhir/StructureDefinition/change-description">
                        <valueString value="Duplicated medicine"/>
                    </extension>
                    <flag>
                        <coding>
                            <system value="http://terminology.hl7.org.au/CodeSystem/medicine-item-change"/>
                            <code value="ceased"/>
                            <display value="Ceased"/>
                        </coding>
                    </flag>
                    <item>
                        <!-- reference to Bundle entry of MedicationStatement resource -->
                        <reference value="urn:uuid:17affe2a-6496-437d-8d1a-22baae41a5ae"/>
                    </item>
                </entry>
                <entry>
                    <extension url="http://hl7.org.au/fhir/StructureDefinition/change-description">
                        <valueString value="Allergic reaction"/>
                    </extension>
                    <flag>
                        <coding>
                            <system value="http://terminology.hl7.org.au/CodeSystem/medicine-item-change"/>
                            <code value="ceased"/>
                        </coding>
                    </flag>
                    <item>
                        <!-- reference to Bundle entry of MedicationStatement resource -->
                        <reference value="urn:uuid:3f99bc18-7edf-4e2a-9eae-86629b56d06e"/>
                    </item>
                </entry>
            </List>
        </resource>
    </entry>

    <entry>
        <fullUrl value="urn:uuid:32def593-e104-4cee-b8f5-d1f923efd94b"/>
        <resource>
            <MedicationStatement xmlns="http://hl7.org/fhir">
                <id value="32def593-e104-4cee-b8f5-d1f923efd94b"/>
                <status value="active"/>
                <category>
                    <coding>
                        <system value="http://terminology.hl7.org/CodeSystem/medication-statement-category"/>
                        <code value="community"/>
                        <display value="Community"/>						
                    </coding>
                </category>
                <medicationReference>
                    <!-- reference to Bundle entry of Medication resource -->
                    <reference value="urn:uuid:27046ef9-d808-46d4-a028-0ef182b7a8b2"/>
                </medicationReference>
                <subject>
                    <!-- reference to Bundle entry of Patient resource -->
                    <reference value="urn:uuid:43acc1fd-9f9d-4f2f-8649-c290ac7ff847"/>
                </subject>
                <context>
                    <!-- reference to Bundle entry of Encounter resource -->
                    <reference value="urn:uuid:038f9aaa-6c3d-4681-b9de-455de06a86d3"/>
                </context>
                <dateAsserted value="2018-12-11T13:30:00+10:00"/>
                <reasonCode>
                    <text value="Iron supplement"/>
                </reasonCode>
                <dosage>
                    <text value="Take one tablet daily"/>
                    <timing>
                        <repeat>
                            <frequency value="1"/>
                            <period value="1"/>
                            <periodUnit value="d"/>
                        </repeat>
                    </timing>
                    <doseAndRate>
                        <doseQuantity>
                            <value value="1"/>
                            <unit value="tablet"/>
                            <system value="http://snomed.info/sct"/>
                            <code value="154011000036109"/>
                        </doseQuantity>
                    </doseAndRate>
                </dosage>
            </MedicationStatement>
        </resource>
    </entry>

    <entry>
        <fullUrl value="urn:uuid:27046ef9-d808-46d4-a028-0ef182b7a8b2"/>
        <resource>
            <Medication xmlns="http://hl7.org/fhir">
                <id value="27046ef9-d808-46d4-a028-0ef182b7a8b2"/>
                <code>
                    <coding>
                        <system value="http://snomed.info/sct"/>
                        <code value="53373011000036103"/>
                        <display value="Ferro-Grad C"/>
                    </coding>
                    <text value="Ferro-Grad C"/>
                </code>
                <form>
                    <coding>
                        <system value="http://snomed.info/sct"/>
                        <code value="154011000036109"/>
                        <display value="tablet"/>
                    </coding>
                </form>
            </Medication>
        </resource>
    </entry>

    <entry>
        <fullUrl value="urn:uuid:f02c54ad-3562-4f7b-8956-de16769a2a88"/>
        <resource>
            <MedicationStatement xmlns="http://hl7.org/fhir">
                <id value="f02c54ad-3562-4f7b-8956-de16769a2a88"/>
                <status value="active"/>
                <category>
                    <coding>
                        <system value="http://terminology.hl7.org/CodeSystem/medication-statement-category"/>
                        <code value="community"/>
                        <display value="Community"/>						
                    </coding>
                </category>
                <medicationReference>
                    <!-- reference to Bundle entry of Medication resource -->
                    <reference value="urn:uuid:c09df0db-3050-4b62-bb27-7c9b743d59bd"/>
                </medicationReference>
                <subject>
                    <!-- reference to Bundle entry of Patient resource -->
                    <reference value="urn:uuid:43acc1fd-9f9d-4f2f-8649-c290ac7ff847"/>
                </subject>
                <context>
                    <!-- reference to Bundle entry of Encounter resource -->
                    <reference value="urn:uuid:038f9aaa-6c3d-4681-b9de-455de06a86d3"/>
                </context>
                <effectivePeriod>
                    <end value="2019-01-20"/>
                </effectivePeriod>
                <dateAsserted value="2018-12-11T13:30:00+10:00"/>
                <reasonCode>
                    <text value="Chest infection"/>
                </reasonCode>
                <dosage>
                    <text value="Take one tablet twice a day"/>
                    <timing>
                        <repeat>
                            <frequency value="2"/>
                            <period value="1"/>
                            <periodUnit value="d"/>
                        </repeat>
                    </timing>
                    <doseAndRate>
                        <doseQuantity>
                            <value value="1"/>
                            <unit value="tablet"/>
                            <system value="http://snomed.info/sct"/>
                            <code value="154011000036109"/>
                        </doseQuantity>
                    </doseAndRate>
                </dosage>
            </MedicationStatement>
        </resource>
    </entry>

    <entry>
        <fullUrl value="urn:uuid:c09df0db-3050-4b62-bb27-7c9b743d59bd"/>
        <resource>
            <Medication xmlns="http://hl7.org/fhir">
                <id value="c09df0db-3050-4b62-bb27-7c9b743d59bd"/>
                <extension url="http://hl7.org.au/fhir/StructureDefinition/medication-brand-name">
                    <valueString value="Augmentin Duo Forte"/>
                </extension>
                <code>
                    <coding>
                        <system value="http://snomed.info/sct"/>
                        <code value="28152011000036108"/>
                        <display value="amoxicillin 875 mg + clavulanic acid 125 mg tablet, 10"/>
                    </coding>
                    <coding>
                        <system value="http://pbs.gov.au/code/item"/>
                        <code value="5006L"/>
                        <display value="amoxicillin 875 mg + clavulanic acid 125 mg tablet, 10"/>
                    </coding>
                    <text value="Amoxicillin 875 mg + clavulanic acid 125 mg tablet, Augmentin Duo Forte"
                    />
                </code>
            </Medication>
        </resource>
    </entry>

    <entry>
        <fullUrl value="urn:uuid:f27faa7d-0433-484a-94ab-5a3f966bd7b1"/>
        <resource>
            <MedicationStatement xmlns="http://hl7.org/fhir">
                <id value="f27faa7d-0433-484a-94ab-5a3f966bd7b1"/>
                <status value="active"/>
                <category>
                    <coding>
                        <system value="http://terminology.hl7.org/CodeSystem/medication-statement-category"/>
                        <code value="community"/>
                        <display value="Community"/>						
                    </coding>
                </category>
                <medicationReference>
                    <!-- reference to Bundle entry of Medication resource -->
                    <reference value="urn:uuid:d45954e8-80ae-4610-b235-239e9d352799"/>
                </medicationReference>
                <subject>
                    <!-- reference to Bundle entry of Patient resource -->
                    <reference value="urn:uuid:43acc1fd-9f9d-4f2f-8649-c290ac7ff847"/>
                </subject>
                <context>
                    <!-- reference to Bundle entry of Encounter resource -->
                    <reference value="urn:uuid:038f9aaa-6c3d-4681-b9de-455de06a86d3"/>
                </context>
                <dateAsserted value="2018-12-11T13:30:00+10:00"/>
                <reasonCode>
                    <text value="Reduce blood sugar"/>
                </reasonCode>
                <dosage>
                    <text value="Take one tablet twice a day"/>
                    <timing>
                        <repeat>
                            <frequency value="2"/>
                            <period value="1"/>
                            <periodUnit value="d"/>
                        </repeat>
                    </timing>
                    <doseAndRate>
                        <doseQuantity>
                            <value value="1"/>
                            <unit value="tablet"/>
                            <system value="http://snomed.info/sct"/>
                            <code value="154011000036109"/>
                        </doseQuantity>
                    </doseAndRate>
                </dosage>
            </MedicationStatement>
        </resource>
    </entry>

    <entry>
        <fullUrl value="urn:uuid:d45954e8-80ae-4610-b235-239e9d352799"/>
        <resource>
            <Medication xmlns="http://hl7.org/fhir">
                <id value="d45954e8-80ae-4610-b235-239e9d352799"/>
                <extension url="http://hl7.org.au/fhir/StructureDefinition/medication-brand-name">
                    <valueString value="Sandoz"/>
                </extension>
                <code>
                    <coding>
                        <system value="http://snomed.info/sct"/>
                        <code value="23358011000036102"/>
                        <display value="metformin hydrochloride 500 mg tablet"/>
                    </coding>
                    <coding>
                        <system value="http://pbs.gov.au/code/item"/>
                        <code value="2430X"/>
                        <display value="metformin hydrochloride 500 mg tablet, 100"/>
                    </coding>
                    <text value="Metformin 500mg tablet, Sandoz"/>
                </code>
            </Medication>
        </resource>
    </entry>

    <entry>
        <fullUrl value="urn:uuid:006679bd-44a9-49df-82ba-a41db0cd6298"/>
        <resource>
            <MedicationStatement xmlns="http://hl7.org/fhir">
                <id value="006679bd-44a9-49df-82ba-a41db0cd6298"/>
                <status value="active"/>
                <category>
                    <coding>
                        <system value="http://terminology.hl7.org/CodeSystem/medication-statement-category"/>
                        <code value="community"/>
                        <display value="Community"/>						
                    </coding>
                </category>
                <medicationReference>
                    <!-- reference to Bundle entry of Medication resource -->
                    <reference value="urn:uuid:4418bed2-2ae9-4d0a-9acd-d70ab8284c50"/>
                </medicationReference>
                <subject>
                    <!-- reference to Bundle entry of Patient resource -->
                    <reference value="urn:uuid:43acc1fd-9f9d-4f2f-8649-c290ac7ff847"/>
                </subject>
                <context>
                    <!-- reference to Bundle entry of Encounter resource -->
                    <reference value="urn:uuid:038f9aaa-6c3d-4681-b9de-455de06a86d3"/>
                </context>
                <dateAsserted value="2018-12-11T13:30:00+10:00"/>
                <dosage>
                    <text value="Take one tablet daily"/>
                    <timing>
                        <repeat>
                            <frequency value="1"/>
                            <period value="1"/>
                            <periodUnit value="d"/>
                        </repeat>
                    </timing>
                    <doseAndRate>
                        <doseQuantity>
                            <value value="1"/>
                            <unit value="tablet"/>
                            <system value="http://snomed.info/sct"/>
                            <code value="154011000036109"/>
                        </doseQuantity>
                    </doseAndRate>
                </dosage>
            </MedicationStatement>
        </resource>
    </entry>

    <entry>
        <fullUrl value="urn:uuid:4418bed2-2ae9-4d0a-9acd-d70ab8284c50"/>
        <resource>
            <Medication xmlns="http://hl7.org/fhir">
                <id value="4418bed2-2ae9-4d0a-9acd-d70ab8284c50"/>
                <code>
                    <text value="Multi-vitamins"/>
                </code>
                <form>
                    <coding>
                        <system value="http://snomed.info/sct"/>
                        <code value="154011000036109"/>
                        <display value="tablet"/>
                    </coding>
                </form>
            </Medication>
        </resource>
    </entry>

    <entry>
        <fullUrl value="urn:uuid:d14a5c15-87c9-4cf8-9047-657189898273"/>
        <resource>
            <MedicationStatement xmlns="http://hl7.org/fhir">
                <id value="d14a5c15-87c9-4cf8-9047-657189898273"/>
                <status value="active"/>
                <category>
                    <coding>
                        <system value="http://terminology.hl7.org/CodeSystem/medication-statement-category"/>
                        <code value="community"/>
                        <display value="Community"/>						
                    </coding>
                </category>
                <medicationReference>
                    <!-- reference to Bundle entry of Medication resource -->
                    <reference value="urn:uuid:9574e2d4-863b-11e9-a159-526af7764f64"/>
                </medicationReference>
                <subject>
                    <!-- reference to Bundle entry of Patient resource -->
                    <reference value="urn:uuid:43acc1fd-9f9d-4f2f-8649-c290ac7ff847"/>
                </subject>
                <context>
                    <!-- reference to Bundle entry of Encounter resource -->
                    <reference value="urn:uuid:038f9aaa-6c3d-4681-b9de-455de06a86d3"/>
                </context>
                <dateAsserted value="2018-12-11T13:30:00+10:00"/>
                <reasonCode>
                    <text value="Osteoarthritis, pain relief"/>
                </reasonCode>
                <dosage>
                    <text
                        value="Take two tablets every 6 to 8 hours when required; No more than 6 tablets in 24 hours"/>
                    <timing>
                        <repeat>
                            <frequency value="1"/>
                            <period value="6"/>
                            <periodMax value="8"/>
                            <periodUnit value="h"/>
                        </repeat>
                    </timing>
                    <asNeededBoolean value="true"/>
                    <doseAndRate>
                        <doseQuantity>
                            <value value="2"/>
                            <unit value="tablets"/>
                            <system value="http://snomed.info/sct"/>
                            <code value="154011000036109"/>
                        </doseQuantity>
                    </doseAndRate>
                    <maxDosePerPeriod>
                        <numerator>
                            <value value="6"/>
                            <unit value="tablets"/>
                            <system value="http://snomed.info/sct"/>
                            <code value="154011000036109"/>
                        </numerator>
                        <denominator>
                            <value value="24"/>
                            <unit value="hours"/>
                            <system value="http://unitsofmeasure.org"/>
                            <code value="h"/>
                        </denominator>
                    </maxDosePerPeriod>
                </dosage>
            </MedicationStatement>
        </resource>
    </entry>

    <entry>
        <fullUrl value="urn:uuid:9574e2d4-863b-11e9-a159-526af7764f64"/>
        <resource>
            <Medication xmlns="http://hl7.org/fhir">
                <id value="9574e2d4-863b-11e9-a159-526af7764f64"/>
                <extension url="http://hl7.org.au/fhir/StructureDefinition/medication-brand-name">
                    <valueString value="Panadol Osteo"/>
                </extension>
                <extension url="http://hl7.org.au/fhir/StructureDefinition/medication-generic-name">
                    <valueString value="Paracetamol 665mg tablet"/>
                </extension>
                <code>
                    <coding>
                        <system value="http://snomed.info/sct"/>
                        <code value="22075011000036103"/>
                        <display value="paracetamol 665 mg modified release tablet"/>
                    </coding>
                    <coding>
                        <system value="http://pbs.gov.au/code/item"/>
                        <code value="8814X"/>
                        <display value="paracetamol 665 mg modified release tablet, 96"/>
                    </coding>
                    <text value="Paracetamol 665mg tablet; Panadol Osteo"/>
                </code>
                <form>
                    <coding>
                        <system value="http://snomed.info/sct"/>
                        <code value="261011000036101"/>
                        <display value="modified release tablet"/>
                    </coding>
                </form>
                <ingredient>
                    <itemCodeableConcept>
                        <coding>
                            <system value="http://snomed.info/sct"/>
                            <code value="21433011000036107"/>
                            <display value="Paracetamol"/>
                        </coding>
                    </itemCodeableConcept>
                    <strength>
                        <numerator>
                            <value value="665"/>
                            <unit value="mg"/>
                            <system value="http://unitsofmeasure.org"/>
                            <code value="mg"/>
                        </numerator>
                        <denominator>
                            <value value="1"/>
                        </denominator>
                    </strength>
                </ingredient>
            </Medication>
        </resource>
    </entry>

    <entry>
        <fullUrl value="urn:uuid:17affe2a-6496-437d-8d1a-22baae41a5ae"/>
        <resource>
            <MedicationStatement xmlns="http://hl7.org/fhir">
                <id value="17affe2a-6496-437d-8d1a-22baae41a5ae"/>
                <status value="stopped"/>
                <category>
                    <coding>
                        <system value="http://terminology.hl7.org/CodeSystem/medication-statement-category"/>
                        <code value="community"/>
                        <display value="Community"/>						
                    </coding>
                </category>
                <medicationReference>
                    <!-- reference to Bundle entry of Medication resource -->
                    <reference value="urn:uuid:37c3cb4d-37cd-4e4e-985f-d1b8fd44fbb7"/>
                </medicationReference>
                <subject>
                    <!-- reference to Bundle entry of Patient resource -->
                    <reference value="urn:uuid:43acc1fd-9f9d-4f2f-8649-c290ac7ff847"/>
                </subject>
                <context>
                    <!-- reference to Bundle entry of Encounter resource -->
                    <reference value="urn:uuid:038f9aaa-6c3d-4681-b9de-455de06a86d3"/>
                </context>
                <effectivePeriod>
                    <end value="2018-12"/>
                </effectivePeriod>
                <dateAsserted value="2018-12-11T13:30:00+10:00"/>
            </MedicationStatement>
        </resource>
    </entry>

    <entry>
        <fullUrl value="urn:uuid:37c3cb4d-37cd-4e4e-985f-d1b8fd44fbb7"/>
        <resource>
            <Medication xmlns="http://hl7.org/fhir">
                <id value="37c3cb4d-37cd-4e4e-985f-d1b8fd44fbb7"/>
                <code>
                    <coding>
                        <system value="http://snomed.info/sct"/>
                        <code value="23628011000036109"/>
                        <display value="paracetamol 500 mg tablet"/>
                    </coding>
                    <text value="Paracetamol 500 mg tablet"/>
                </code>
            </Medication>
        </resource>
    </entry>

    <entry>
        <fullUrl value="urn:uuid:3f99bc18-7edf-4e2a-9eae-86629b56d06e"/>
        <resource>
            <MedicationStatement xmlns="http://hl7.org/fhir">
                <id value="3f99bc18-7edf-4e2a-9eae-86629b56d06e"/>
                <status value="stopped"/>
                <category>
                    <coding>
                        <system value="http://terminology.hl7.org/CodeSystem/medication-statement-category"/>
                        <code value="community"/>
                        <display value="Community"/>						
                    </coding>
                </category>
                <medicationReference>
                    <!-- reference to Bundle entry of Medication resource -->
                    <reference value="Medication/2a506a7c-aab0-4af3-9ea3-3f47ebe16e3d"/>
                </medicationReference>
                <subject>
                    <!-- reference to Bundle entry of Patient resource -->
                    <reference value="urn:uuid:43acc1fd-9f9d-4f2f-8649-c290ac7ff847"/>
                </subject>
                <context>
                    <!-- reference to Bundle entry of Encounter resource -->
                    <reference value="urn:uuid:038f9aaa-6c3d-4681-b9de-455de06a86d3"/>
                </context>
                <dateAsserted value="2018-12-11T13:30:00+10:00"/>
            </MedicationStatement>
        </resource>
    </entry>

    <entry>
        <fullUrl value="urn:uuid:2a506a7c-aab0-4af3-9ea3-3f47ebe16e3d"/>
        <resource>
            <Medication xmlns="http://hl7.org/fhir">
                <id value="2a506a7c-aab0-4af3-9ea3-3f47ebe16e3d"/>
                <code>
                    <coding>
                        <system value="http://snomed.info/sct"/>
                        <code value="21885011000036105"/>
                        <display value="Ibuprofen"/>
                    </coding>
                    <coding>
                        <system value="http://pbs.gov.au/code/item"/>
                        <code value="3192B"/>
                        <display value="IBUPROFEN"/>
                    </coding>
                    <text value="Ibuprofen"/>
                </code>
            </Medication>
        </resource>
    </entry>

    <entry>
        <fullUrl value="urn:uuid:7f834da9-63f5-4a66-a847-a32c366701ff"/>
        <resource>
            <AllergyIntolerance xmlns="http://hl7.org/fhir">
                <id value="7f834da9-63f5-4a66-a847-a32c366701ff"/>
                <clinicalStatus>
                    <coding>
                        <system value="http://terminology.hl7.org/CodeSystem/allergyintolerance-clinical"/>
                        <code value="active"/>
                        <display value="Active"/>
                    </coding>
                </clinicalStatus>
                <verificationStatus>
                    <coding>
                        <system value="http://terminology.hl7.org/CodeSystem/allergyintolerance-verification"/>
                        <code value="unconfirmed"/>
                        <display value="Unconfirmed"/>
                    </coding>
                </verificationStatus>
                <type value="allergy"/>
                <category value="medication"/>
                <code>
                    <coding>
                        <system value="http://snomed.info/sct"/>
                        <code value="293619005"/>
                        <display value="Ibuprofen allergy"/>
                    </coding>
                    <text value="Ibuprofen allergy"/>
                </code>
                <patient>
                    <!-- reference to Bundle entry of Patient resource -->
                    <reference value="urn:uuid:43acc1fd-9f9d-4f2f-8649-c290ac7ff847"/>
                </patient>
                <encounter>
                    <!-- reference to Bundle entry of Encounter resource -->
                    <reference value="urn:uuid:038f9aaa-6c3d-4681-b9de-455de06a86d3"/>
                </encounter>
                <onsetDateTime value="2016-10"/>
                <recorder>
                    <!-- reference to Bundle entry of PractitionerRole resource -->
                    <reference value="urn:uuid:eebd7c94-e124-4c2b-95dc-a6aebbe7bb4d"/>
                </recorder>
                <asserter>
                    <!-- reference to Bundle entry of Patient resource -->
                    <reference value="urn:uuid:43acc1fd-9f9d-4f2f-8649-c290ac7ff847"/>
                </asserter>
                <reaction>
                    <substance>
                        <coding>
                            <system value="http://snomed.info/sct"/>
                            <code value="21885011000036105"/>
                            <display value="Ibuprofen"/>
                        </coding>
                        <text value="ibuprofen"/>
                    </substance>
                    <manifestation>
                        <coding>
                            <system value="http://snomed.info/sct"/>
                            <code value="39579001"/>
                            <display value="Anaphylaxis"/>
                        </coding>
                        <text value="Anaphylaxis"/>
                    </manifestation>
                </reaction>
            </AllergyIntolerance>
        </resource>
    </entry>

</Bundle>
