<?xml version="1.0" encoding="UTF-8"?>
<Bundle xmlns="http://hl7.org/fhir">
    <id value="psml-02"/>
    <meta>
        <lastUpdated value="2019-02-09T10:49:22+10:00"/>
        <profile value="http://ns.electronichealth.net.au/ci/fhir/StructureDefinition/dh-bundle-payload-1"/>
        <profile value="http://ns.electronichealth.net.au/ci/fhir/StructureDefinition/dh-bundle-core-1"/>
    </meta>
    <identifier>
        <system value="urn:ietf:rfc:3986"/>
        <value value="urn:uuid:b4039bff-90be-4fc4-850b-cc0190e94e3d"/>
    </identifier>
    <type value="collection"/>
    <timestamp value="2019-02-09T10:49:22+10:00"/>
    <entry>
        <fullUrl value="urn:uuid:98e4b64a-d493-45c1-8102-b3b689da1c15"/>
        <resource>
            <Composition xmlns="http://hl7.org/fhir">
                <id value="98e4b64a-d493-45c1-8102-b3b689da1c15"/>
                <meta>
                    <versionId value="20190205"/>
                    <profile value="http://ns.electronichealth.net.au/ci/fhir/StructureDefinition/dh-composition-core-1"/>
                </meta>
                <language value="en-AU"/>
                <identifier>
                    <system value="urn:ietf:rfc:3986"/>
                    <value value="urn:uuid:0d6aef03-f95e-4748-9d18-162dad3accd5"/>
                </identifier>
                <status value="final"/>
                <type>
                    <coding>
                        <system value="http://loinc.org"/>
                        <code value="56445-0"/>
                    </coding>
                </type>
                <category>
                    <coding>
                        <system value="http://loinc.org"/>
                        <code value="56445-0"/>
                    </coding>
                </category>
                <subject>
                    <reference value="urn:uuid:1fbd9663-b4cd-4a33-9657-650eca3a6b3f"/>
                </subject>
                <encounter>
                    <reference value="urn:uuid:c97d9869-3d3b-4612-958d-7af2c1ffd1da"/>
                </encounter>
                <date value="2019-02-05"/>
                <author>
                    <reference value="urn:uuid:91555386-d478-4e3d-bd3d-ac642ff603c4"/>
                </author>
                <title value="Home Medicines Review Report for Mr. Lenny Matterson"/>
                <custodian>
                    <reference value="urn:uuid:1a8a2450-f190-4511-a24c-a2825a5ae1ee"/>
                </custodian>

                <!-- CURRENT MEDICINES SECTION -->
                <section>
                    <title value="Current Medicines"/>
                    <code>
                        <coding>
                            <system
                                value="https://healthterminologies.gov.au/fhir/CodeSystem/nctis-data-components-1"/>
                            <code value="101.32009"/>
                            <display value="Current Medicines"/>
                        </coding>
                    </code>
                    <text>
                        <status value="extensions"/>
                        <div xmlns="http://www.w3.org/1999/xhtml" lang="en-AU">
                            <table border="1">
                                <caption>Home Medicines Review</caption>
                                <thead>
                                    <tr>
                                        <th>Date of Interview</th>
                                        <th/>
                                        <th>General Assessment</th>
                                    </tr>
                                </thead>
                                <tbody>
                                    <tr>
                                        <td>5 Feb 2019 10:00AM - 5 Feb 2019 11:15AM</td>
                                        <td>Home medicines review</td>
                                        <td>Patient has his medications packed into blister packs
                                            via ABC pharmacy. He finds them easy to use and they
                                            promote good adherence to his regime. His Bluecare
                                            nurse, Nurse B, was present for the interview. Of the
                                            medication listed on the referral, he is not currently
                                            taking Aldara 5% cream and Chloramphenicol ointment. In
                                            addition to the medication listed on the referral, he is
                                            also taking coQ10 150mg tab - 1 nocte.He reports
                                            occasional dizziness if he changes position quickly, and
                                            does report falling outside in the garden; he wears a
                                            falls alarm buzzer. He reports that he generally only
                                            experiences chest pain when he becomes stressed (doesn’t
                                            like paperwork). His blood pressure at the time of the
                                            interview was 158 /76.</td>
                                    </tr>
                                </tbody>
                            </table>
                            <table border="1">
                                <caption>Current Medicines</caption>
                                <thead>
                                    <tr>
                                        <th>Medicine</th>
                                        <th>Directions</th>
                                        <th>Medicine purpose</th>
                                        <th>Medicine status</th>
                                        <th>Status Reason/Comment</th>
                                    </tr>
                                </thead>
                                <tbody>
                                    <tr>
                                        <td>Amiodarone 200mg tab</td>
                                        <td>1 in the morning</td>
                                        <td/>
                                        <td>Unchanged</td>
                                        <td/>
                                    </tr>
                                    <tr>
                                        <td>Bisoprolol 2.5mg tab</td>
                                        <td>1/2 tablet in the morning</td>
                                        <td/>
                                        <td>Unchanged</td>
                                        <td/>
                                    </tr>
                                    <tr>
                                        <td>CoQ10 150mg tab</td>
                                        <td>1 at night</td>
                                        <td/>
                                        <td>New</td>
                                        <td>In pack – new finding of Atrial fibrillation</td>
                                    </tr>
                                </tbody>
                            </table>
                            <p>Packed medicines: Some medicines packed in dose administration
                                aid</p>
                        </div>
                    </text>
                    <entry>
                        <reference value="urn:uuid:05ed5a63-70ab-4dfb-820c-4be0d79bb0d3"/>
                    </entry>
                </section>

                <!-- CEASED MEDICINES SECTION -->
                <section>
                    <title value="Ceased medicines"/>
                    <code>
                        <coding>
                            <system
                                value="https://healthterminologies.gov.au/fhir/CodeSystem/nctis-data-components-1"/>
                            <code value="101.32027"/>
                            <display value="Ceased Medicines"/>
                        </coding>
                    </code>
                    <text>
                        <status value="extensions"/>
                        <div xmlns="http://www.w3.org/1999/xhtml" lang="en-AU">
                            <table border="1">
                                <caption>Ceased medicines</caption>
                                <thead>
                                    <tr>
                                        <th>Ceased medicine</th>
                                        <th>Reason for ceasing</th>
                                    </tr>
                                </thead>
                                <tbody>
                                    <tr>
                                        <td>Aldara 5% cream</td>
                                        <td>Completed 8-week course</td>
                                    </tr>
                                    <tr>
                                        <td>Chloramphenicol 1% eye ointment</td>
                                        <td>Stopped due to burning sensation in the eye.</td>
                                    </tr>
                                </tbody>
                            </table>
                            <p>Packed medicines: No medicines packed in dose administration aid</p>
                        </div>
                    </text>
                    <entry>
                        <reference value="urn:uuid:c0c68add-8f8f-472e-98f3-ffcb0b6e016b"/>
                    </entry>
                </section>

            </Composition>
        </resource>
    </entry>
    <entry>
        <fullUrl value="urn:uuid:1fbd9663-b4cd-4a33-9657-650eca3a6b3f"/>
        <resource>
            <Patient>
                <id value="1fbd9663-b4cd-4a33-9657-650eca3a6b3f"/>
                <extension url="http://hl7.org.au/fhir/StructureDefinition/indigenous-status">
                    <valueCoding>
                        <system
                            value="https://healthterminologies.gov.au/fhir/CodeSystem/australian-indigenous-status-1"/>
                        <code value="1"/>
                        <display value="Aboriginal but not Torres Strait Islander origin"/>
                    </valueCoding>
                </extension>
                <identifier>
                    <type>
                        <coding>
                            <system value="http://terminology.hl7.org/CodeSystem/v2-0203"/>
                            <code value="NI"/>
                            <display value="National unique individual identifier"/>
                        </coding>
                        <text value="IHI"/>
                    </type>
                    <system value="http://ns.electronichealth.net.au/id/hi/ihi/1.0"/>
                    <value value="8003608166895854"/>
                </identifier>
                <identifier>
                    <type>
                        <coding>
                            <system value="http://terminology.hl7.org/CodeSystem/v2-0203"/>
                            <code value="MC"/>
                            <display value="Patient's Medicare Number"/>
                        </coding>
                        <text value="Medicare Number"/>
                    </type>
                    <system value="http://ns.electronichealth.net.au/id/medicare-number"/>
                    <value value="5950890021"/>
                    <period>
                        <end value="2019-05"/>
                    </period>
                </identifier>
                <name>
                    <family value="MATTERSON"/>
                    <given value="Lenny"/>
                    <prefix value="Mr."/>
                </name>
                <gender value="male"/>
                <birthDate value="1955-02-06">
                    <extension url="http://hl7.org/fhir/StructureDefinition/patient-birthTime">
                        <valueDateTime value="1955-02-06T06:17:00+10:00"/>
                    </extension>
                </birthDate>
                <communication>
                    <language>
                        <coding>
                            <system value="urn:ietf:bcp:47"/>
                            <code value="pjt"/>
                            <display value="Pitjantjatjara"/>
                        </coding>
                    </language>
                </communication>
            </Patient>
        </resource>
    </entry>
    <entry>
        <fullUrl value="urn:uuid:91555386-d478-4e3d-bd3d-ac642ff603c4"/>
        <resource>
            <PractitionerRole>
                <id value="91555386-d478-4e3d-bd3d-ac642ff603c4"/>
                <identifier>
                    <type>
                        <coding>
                            <system value="http://terminology.hl7.org/CodeSystem/v2-0203"/>
                            <code value="NPI"/>
                            <display value="National provider identifier"/>
                        </coding>
                        <text value="HPI-I"/>
                    </type>
                    <system value="http://ns.electronichealth.net.au/id/hi/hpii/1.0"/>
                    <value value="8003611566708354"/>
                </identifier>
                <identifier>
                    <type>
                        <coding>
                            <system value="http://terminology.hl7.org.au/CodeSystem/v2-0203"/>
                            <code value="UPIN"/>
                        </coding>
                        <text value="Medicare Provider Number"/>
                    </type>
                    <system value="http://ns.electronichealth.net.au/id/medicare-provider-number"/>
                    <value value="5544887B"/>
                </identifier>
                <practitioner>
                    <reference value="urn:uuid:f9695b57-7502-4f50-bf36-b68a755e9956"/>
                </practitioner>
                <organization>
                    <reference value="urn:uuid:1a8a2450-f190-4511-a24c-a2825a5ae1ee"/>
                </organization>
                <code>
                    <coding>
                        <system value="http://www.abs.gov.au/ausstats/abs@.nsf/mf/1220.0"/>
                        <code value="251513"/>
                        <display value="Retail Pharmacist"/>
                    </coding>
                    <text value="Pharmacist"/>
                </code>
                <telecom>
                    <system value="email"/>
                    <value value="pha@gmail.com"/>
                    <use value="work"/>
                </telecom>
            </PractitionerRole>
        </resource>
    </entry>
    <entry>
        <fullUrl value="urn:uuid:f9695b57-7502-4f50-bf36-b68a755e9956"/>
        <resource>
            <Practitioner>
                <id value="f9695b57-7502-4f50-bf36-b68a755e9956"/>
                <identifier>
                    <type>
                        <coding>
                            <system value="http://terminology.hl7.org/CodeSystem/v2-0203"/>
                            <code value="NPI"/>
                            <display value="National provider identifier"/>
                        </coding>
                        <text value="HPI-I"/>
                    </type>
                    <system value="http://ns.electronichealth.net.au/id/hi/hpii/1.0"/>
                    <value value="8003611566708354"/>
                </identifier>
                <name>
                    <family value="Pharmacist"/>
                    <given value="Representative"/>
                    <prefix value="Mr."/>
                </name>
                <qualification>
                    <code>
                        <text value="Bachelor of Pharmacy"/>
                    </code>
                </qualification>
            </Practitioner>
        </resource>
    </entry>
    <entry>
        <fullUrl value="urn:uuid:1a8a2450-f190-4511-a24c-a2825a5ae1ee"/>
        <resource>
            <Organization>
                <id value="1a8a2450-f190-4511-a24c-a2825a5ae1ee"/>
                <identifier>
                    <type>
                        <coding>
                            <system value="http://terminology.hl7.org.au/CodeSystem/v2-0203"/>
                            <code value="NOI"/>
                        </coding>
                        <text value="HPI-O"/>
                    </type>
                    <system value="http://ns.electronichealth.net.au/id/hi/hpio/1.0"/>
                    <value value="8003629900033370"/>
                </identifier>
                <type>
                    <coding>
                        <system value="http://www.abs.gov.au/ausstats/abs@.nsf/mf/1292.0"/>
                        <code value="4271"/>
                        <display value="Retail Pharmacy"/>
                    </coding>
                </type>
                <name value="Test Org -DigitalHealth 6"/>
                <address>
                    <line value="570 Whatcha St"/>
                    <city value="GLEBE"/>
                    <state value="NSW"/>
                    <postalCode value="2037"/>
                    <country value="AU"/>
                </address>
            </Organization>
        </resource>
    </entry>

    <entry>
        <fullUrl value="urn:uuid:c97d9869-3d3b-4612-958d-7af2c1ffd1da"/>
        <resource>
            <Encounter>
                <id value="c97d9869-3d3b-4612-958d-7af2c1ffd1da"/>
                <extension url="http://hl7.org.au/fhir/StructureDefinition/encounter-description">
                    <valueString
                        value="Patient has his medications packed into blister packs via ABC pharmacy. He finds them easy to use and they promote good adherence to his regime. His Bluecare nurse, Nurse B, was present for the interview. Of the medication listed on the referral, he is not currently taking Aldara 5% cream and Chloramphenicol ointment. In addition to the medication listed on the referral, he is also taking coQ10 150mg tab - 1 nocte.He reports occasional dizziness if he changes position quickly, and does report falling outside in the garden; he wears a falls alarm buzzer. He reports that he generally only experiences chest pain when he becomes stressed (doesn’t like paperwork). His blood pressure at the time of the interview was 158 /76."
                    />
                </extension>
                <status value="finished"/>
                <class>
                    <system value="http://terminology.hl7.org/CodeSystem/v3-ActCode"/>
                    <code value="HH"/>
                    <display value="home health"/>
                </class>
                <type>
                    <coding>
                        <system value="http://snomed.info/sct"/>
                        <code value="1348931000168107"/>
                        <display value="Home medicines review"/>
                    </coding>
                    <text value="Home medicines review"/>
                </type>
                <serviceType>
                    <coding>
                        <system value="http://snomed.info/sct"/>
                        <code value="182836005"/>
                        <display value="Review of medication"/>
                    </coding>
                    <text value="Medicines review"/>
                </serviceType>
                <subject>
                    <reference value="urn:uuid:1fbd9663-b4cd-4a33-9657-650eca3a6b3f"/>
                </subject>
                <participant>
                    <type>
                        <coding>
                            <system value="http://terminology.hl7.org/CodeSystem/v3-ParticipationType"/>
                            <code value="PPRF"/>
                            <display value="primary performer"/>   
                        </coding>
                    </type>
                    <individual>
                        <reference value="urn:uuid:91555386-d478-4e3d-bd3d-ac642ff603c4"/>
                    </individual>
                </participant>
                <period>
                    <start value="2019-02-05T10:00:00+10:00"/>
                    <end value="2019-02-05T11:15:00+10:00"/>
                </period>
            </Encounter>
        </resource>
    </entry>

    <entry>
        <fullUrl value="urn:uuid:05ed5a63-70ab-4dfb-820c-4be0d79bb0d3"/>
        <resource>
            <List>
                <id value="05ed5a63-70ab-4dfb-820c-4be0d79bb0d3"/>
                <meta>
                    <profile value="http://ns.electronichealth.net.au/ci/fhir/StructureDefinition/dh-list-medication-use-pmr-1"/>
                </meta>
                <language value="en-AU"/>
                <extension url="http://ns.electronichealth.net.au/ci/fhir/StructureDefinition/dh-packed-in-daa-1">
                    <valueCodeableConcept>
                        <coding>
                            <system value="http://snomed.info/sct"/>
                            <code value="1469411000168101"/>
                            <display value="Some medicines packed in medicines dispenser"/>
                        </coding>
                        <text value="Some medicines packed in dose administration aid"/>
                    </valueCodeableConcept>
                </extension>
                <status value="current"/>
                <mode value="snapshot"/>
                <title value="Current Medicines List"/>
                <code>
                    <coding>
                        <system
                            value="https://healthterminologies.gov.au/fhir/CodeSystem/nctis-data-components-1"/>
                        <code value="101.32009"/>
                        <display value="Current Medicines"/>
                    </coding>
                </code>
                <subject>
                    <reference value="urn:uuid:1fbd9663-b4cd-4a33-9657-650eca3a6b3f"/>
                </subject>
                <encounter>
                    <reference value="urn:uuid:c97d9869-3d3b-4612-958d-7af2c1ffd1da"/>
                </encounter>
                <date value="2019-02-05"/>
                <source>
                    <reference value="urn:uuid:91555386-d478-4e3d-bd3d-ac642ff603c4"/>
                </source>
                <entry>
                    <flag>
                        <coding>
                            <system value="http://terminology.hl7.org.au/CodeSystem/medicine-item-change"/>
                            <code value="nochange"/>
                            <display value="Unchanged"/>
                        </coding>
                    </flag>
                    <item>
                        <reference value="urn:uuid:b8353097-2f90-4397-95e0-b7c6f809b0eb"/>
                    </item>
                </entry>
                <entry>
                    <flag>
                        <coding>
                            <system value="http://terminology.hl7.org.au/CodeSystem/medicine-item-change"/>
                            <code value="nochange"/>
                            <display value="Unchanged"/>
                        </coding>
                    </flag>
                    <item>
                        <reference value="urn:uuid:5cde18e4-2b6b-4081-9382-e37abdec5890"/>
                    </item>
                </entry>
                <entry>
                    <extension url="http://hl7.org.au/fhir/StructureDefinition/change-description">
                        <valueString value="New finding of Atrial fibrillation"/>
                    </extension>
                    <flag>
                        <coding>
                            <system value="http://terminology.hl7.org.au/CodeSystem/medicine-item-change"/>
                            <code value="new"/>
                            <display value="New"/>
                        </coding>
                    </flag>
                    <item>
                        <reference value="urn:uuid:466c4379-3133-4498-ba33-94610ef35845"/>
                    </item>
                </entry>
            </List>
        </resource>
    </entry>
    <entry>
        <fullUrl value="urn:uuid:b8353097-2f90-4397-95e0-b7c6f809b0eb"/>
        <resource>
            <MedicationStatement>
                <id value="b8353097-2f90-4397-95e0-b7c6f809b0eb"/>
                <status value="active"/>
                <medicationReference>
                    <reference value="urn:uuid:c75149aa-8bdd-401b-a234-3e533991cd92"/>
                </medicationReference>
                <subject>
                    <reference value="urn:uuid:1fbd9663-b4cd-4a33-9657-650eca3a6b3f"/>
                </subject>
                <context>
                    <reference value="urn:uuid:c97d9869-3d3b-4612-958d-7af2c1ffd1da"/>
                </context>
                <dateAsserted value="2019-02-05"/>
                <dosage>
                    <text value="1 in the morning"/>
                </dosage>
            </MedicationStatement>
        </resource>
    </entry>
    <entry>
        <fullUrl value="urn:uuid:c75149aa-8bdd-401b-a234-3e533991cd92"/>
        <resource>
            <Medication>
                <id value="c75149aa-8bdd-401b-a234-3e533991cd92"/>
                <code>
                    <text value="Amiodarone 200mg tab"/>
                </code>
            </Medication>
        </resource>
    </entry>
    <entry>
        <fullUrl value="urn:uuid:5cde18e4-2b6b-4081-9382-e37abdec5890"/>
        <resource>
            <MedicationStatement>
                <id value="5cde18e4-2b6b-4081-9382-e37abdec5890"/>
                <status value="active"/>
                <medicationReference>
                    <reference value="urn:uuid:8a484362-afb0-4c28-b40b-d1a2ae677de3"/>
                </medicationReference>
                <subject>
                    <reference value="urn:uuid:1fbd9663-b4cd-4a33-9657-650eca3a6b3f"/>
                </subject>
                <context>
                    <reference value="urn:uuid:c97d9869-3d3b-4612-958d-7af2c1ffd1da"/>
                </context>
                <dateAsserted value="2019-02-05"/>
                <dosage>
                    <text value="1/2 tablet in the morning"/>
                </dosage>
            </MedicationStatement>
        </resource>
    </entry>
    <entry>
        <fullUrl value="urn:uuid:8a484362-afb0-4c28-b40b-d1a2ae677de3"/>
        <resource>
            <Medication>
                <id value="8a484362-afb0-4c28-b40b-d1a2ae677de3"/>
                <code>
                    <coding>
                        <system value="http://snomed.info/sct"/>
                        <code value="23281011000036106"/>
                        <display value="bisoprolol fumarate 2.5 mg tablet"/>
                    </coding>
                    <text value="Bisoprolol 2.5mg tab"/>
                </code>
            </Medication>
        </resource>
    </entry>
    <entry>
        <fullUrl value="urn:uuid:466c4379-3133-4498-ba33-94610ef35845"/>
        <resource>
            <MedicationStatement>
                <id value="466c4379-3133-4498-ba33-94610ef35845"/>
                <status value="intended"/>
                <medicationReference>
                    <reference value="urn:uuid:cd5a6cac-f6e5-4aa8-b497-6b0e903442cd"/>
                </medicationReference>
                <subject>
                    <reference value="urn:uuid:1fbd9663-b4cd-4a33-9657-650eca3a6b3f"/>
                </subject>
                <context>
                    <reference value="urn:uuid:c97d9869-3d3b-4612-958d-7af2c1ffd1da"/>
                </context>
                <dateAsserted value="2019-02-05"/>
                <dosage>
                    <text value="1 at night"/>
                </dosage>
            </MedicationStatement>
        </resource>
    </entry>
    <entry>
        <fullUrl value="urn:uuid:cd5a6cac-f6e5-4aa8-b497-6b0e903442cd"/>
        <resource>
            <Medication>
                <id value="cd5a6cac-f6e5-4aa8-b497-6b0e903442cd"/>
                <code>
                    <coding>
                        <system value="http://snomed.info/sct"/>
                        <code value="920941011000036100"/>
                        <display value="CoQ10 (Blackmores)"/>
                    </coding>
                    <text value="CoQ10 150mg tab"/>
                </code>
            </Medication>
        </resource>
    </entry>
    <entry>
        <fullUrl value="urn:uuid:c0c68add-8f8f-472e-98f3-ffcb0b6e016b"/>
        <resource>
            <List>
                <id value="c0c68add-8f8f-472e-98f3-ffcb0b6e016b"/>
                <meta>
                    <profile value="http://ns.electronichealth.net.au/ci/fhir/StructureDefinition/dh-list-medication-use-pmr-1"/>
                </meta>
                <language value="en-AU"/>
                <extension url="http://ns.electronichealth.net.au/ci/fhir/StructureDefinition/dh-packed-in-daa-1">
                    <valueCodeableConcept>
                        <coding>
                            <system value="http://snomed.info/sct"/>
                            <code value="1469421000168108"/>
                            <display value="No medicines packed in medicines dispenser"/>
                        </coding>
                        <text value="No medicines packed in dose administration aid"/>
                    </valueCodeableConcept>
                </extension>
                <status value="current"/>
                <mode value="snapshot"/>
                <title value="Ceased Medicines List"/>
                <code>
                    <coding>
                        <system
                            value="https://healthterminologies.gov.au/fhir/CodeSystem/nctis-data-components-1"/>
                        <code value="101.32027"/>
                        <display value="Ceased Medicines"/>
                    </coding>
                </code>
                <subject>
                    <reference value="urn:uuid:1fbd9663-b4cd-4a33-9657-650eca3a6b3f"/>
                </subject>
                <encounter>
                    <reference value="urn:uuid:c97d9869-3d3b-4612-958d-7af2c1ffd1da"/>
                </encounter>
                <date value="2019-02-05"/>
                <source>
                    <reference value="urn:uuid:91555386-d478-4e3d-bd3d-ac642ff603c4"/>
                </source>
                <entry>
                    <extension url="http://hl7.org.au/fhir/StructureDefinition/change-description">
                        <valueString value="Completed 8-week course"/>
                    </extension>
                    <flag>
                        <coding>
                            <system value="http://terminology.hl7.org.au/CodeSystem/medicine-item-change"/>
                            <code value="ceased"/>
                            <display value="Ceased"/>
                        </coding>
                    </flag>
                    <item>
                        <reference value="urn:uuid:99d5fa08-35cd-47cc-9728-896476791b15"/>
                    </item>
                </entry>
                <entry>
                    <extension url="http://hl7.org.au/fhir/StructureDefinition/change-description">
                        <valueString value="Stopped due to burning sensation in the eye."/>
                    </extension>
                    <flag>
                        <coding>
                            <system value="http://terminology.hl7.org.au/CodeSystem/medicine-item-change"/>
                            <code value="ceased"/>
                            <display value="Ceased"/>
                        </coding>
                    </flag>
                    <item>
                        <reference value="urn:uuid:c753dc46-f390-47c5-8760-241a3242279f"/>
                    </item>
                </entry>
            </List>
        </resource>
    </entry>
    <entry>
        <fullUrl value="urn:uuid:99d5fa08-35cd-47cc-9728-896476791b15"/>
        <resource>
            <MedicationStatement>
                <id value="99d5fa08-35cd-47cc-9728-896476791b15"/>
                <status value="completed"/>
                <medicationReference>
                    <reference value="urn:uuid:84d6b33a-ffe3-42e1-8a97-2f32c611d1ed"/>
                </medicationReference>
                <subject>
                    <reference value="urn:uuid:1fbd9663-b4cd-4a33-9657-650eca3a6b3f"/>
                </subject>
                <context>
                    <reference value="urn:uuid:c97d9869-3d3b-4612-958d-7af2c1ffd1da"/>
                </context>
                <dateAsserted value="2019-02-05"/>
            </MedicationStatement>
        </resource>
    </entry>
    <entry>
        <fullUrl value="urn:uuid:84d6b33a-ffe3-42e1-8a97-2f32c611d1ed"/>
        <resource>
            <Medication>
                <id value="84d6b33a-ffe3-42e1-8a97-2f32c611d1ed"/>
                <code>
                    <coding>
                        <system value="http://snomed.info/sct"/>
                        <code value="119411000036106"/>
                        <display value="Aldara 5% cream"/>
                    </coding>
                    <text value="Aldara 5% cream"/>
                </code>
            </Medication>
        </resource>
    </entry>
    <entry>
        <fullUrl value="urn:uuid:c753dc46-f390-47c5-8760-241a3242279f"/>
        <resource>
            <MedicationStatement>
                <id value="c753dc46-f390-47c5-8760-241a3242279f"/>
                <status value="completed"/>
                <medicationReference>
                    <reference value="urn:uuid:f33a47d5-bc8f-4013-ae1e-53b0cf5e26ed"/>
                </medicationReference>
                <subject>
                    <reference value="urn:uuid:1fbd9663-b4cd-4a33-9657-650eca3a6b3f"/>
                </subject>
                <context>
                    <reference value="urn:uuid:c97d9869-3d3b-4612-958d-7af2c1ffd1da"/>
                </context>
                <dateAsserted value="2019-02-05"/>
            </MedicationStatement>
        </resource>
    </entry>
    <entry>
        <fullUrl value="urn:uuid:f33a47d5-bc8f-4013-ae1e-53b0cf5e26ed"/>
        <resource>
            <Medication>
                <id value="f33a47d5-bc8f-4013-ae1e-53b0cf5e26ed"/>
                <code>
                    <coding>
                        <system value="http://snomed.info/sct"/>
                        <code value="22717011000036101"/>
                        <display value="chloramphenicol 1% eye ointment"/>
                    </coding>
                    <text value="Chloramphenicol 1% eye ointment"/>
                </code>
            </Medication>
        </resource>
    </entry>
</Bundle>
