<?xml version="1.0" encoding="UTF-8"?>
<Bundle xmlns="http://hl7.org/fhir">
    <id value="ncsr-02"/>
    <!--Bundle for 'data in' from NCSR to MHR -->
    <meta>
        <lastUpdated value="2022-02-15T07:15:15+10:00"/>
        <profile value="http://ns.electronichealth.net.au/fhir/StructureDefinition/dh-bundle-payload-1"/>
        <profile value="http://ns.electronichealth.net.au/fhir/StructureDefinition/dh-bundle-core-1"/>
    </meta>
    <identifier>
        <system value="urn:ietf:rfc:3986"/>
        <value value="urn:uuid:e5c4c5e5-ab81-460e-b122-ed98dbe1f7e5"/>
    </identifier>
    <type value="collection"/>
    <timestamp value="2022-02-05T06:00:00+10:00"/>  
    <!--    PATIENT    -->
    <entry>
        <fullUrl value="urn:uuid:6b449e98-cceb-40eb-9492-eac90ecedeb5"/>
        <resource>
            <Patient>
                <id value="mhr-zhang-wei"/>
                <extension url="http://hl7.org/fhir/StructureDefinition/patient-birthPlace">
                    <valueAddress>
                        <text value="China"/>
                        <country value="CHN"/>
                    </valueAddress>
                </extension>
                <extension url="http://hl7.org.au/fhir/StructureDefinition/indigenous-status">
                    <valueCoding>
                        <system value="https://healthterminologies.gov.au/fhir/CodeSystem/australian-indigenous-status-1"/>
                        <code value="4"/>
                        <display value="Neither Aboriginal nor Torres Strait Islander origin"/>
                    </valueCoding>
                </extension>
                <extension url="http://hl7.org/fhir/StructureDefinition/patient-interpreterRequired">
                    <valueBoolean value="true"/>
                </extension>
                <extension url="http://hl7.org.au/fhir/StructureDefinition/date-of-arrival">
                    <valueDate value="2017"/> 
                </extension>
                <identifier>
                    <extension url="http://hl7.org.au/fhir/StructureDefinition/ihi-status">
                        <valueCoding>
                            <system value="https://healthterminologies.gov.au/fhir/CodeSystem/ihi-status-1"/>
                            <code value="active"/>
                        </valueCoding>
                    </extension>
                    <extension url="http://hl7.org.au/fhir/StructureDefinition/ihi-record-status">
                        <valueCoding>
                            <system
                                value="https://healthterminologies.gov.au/fhir/CodeSystem/ihi-record-status-1"/>
                            <code value="verified"/>
                            <display value="verified"/>
                        </valueCoding>
                    </extension>
                    <type>
                        <coding>
                            <system value="http://terminology.hl7.org/CodeSystem/v2-0203"/>
                            <code value="NI"/>
                        </coding>
                        <text value="IHI"/>
                    </type>
                    <system value="http://ns.electronichealth.net.au/id/hi/ihi/1.0"/>
                    <value value="8003608000228437"/>
                </identifier>
                <identifier>
                    <type>
                        <coding>
                            <system value="http://terminology.hl7.org/CodeSystem/v2-0203"/>
                            <code value="MC"/>
                        </coding>
                        <text value="Medicare Number"/>
                    </type>
                    <system value="http://ns.electronichealth.net.au/id/medicare-number"/>
                    <value value="29533070311"/>
                </identifier>
                <name>
                    <family value="Zhang"/>
                    <given value="Wei"/>
                    <prefix value="Mr"/>
                </name>
                <gender value="male"/>
                <birthDate value="1972-05-03">
                    <extension url="http://hl7.org.au/fhir/StructureDefinition/date-accuracy-indicator">
                        <valueCoding>
                            <system
                                value="https://healthterminologies.gov.au/fhir/CodeSystem/date-accuracy-indicator-1"/>
                            <code value="AAA"/>
                            <display value="Day, month and year are accurate"/>
                        </valueCoding>
                    </extension>
                </birthDate>
                <communication>
                    <language>
                        <coding>
                            <system value="urn:ietf:bcp:47"/>
                            <code value="yue"/>
                        </coding>
                        <text value="Cantonese"/>
                    </language>
                    <preferred value="true"/>
                </communication>
            </Patient>
        </resource>
    </entry>
    <!--    ORGANIZATION NCSR   -->
    <entry>
        <fullUrl value="urn:uuid:447b3451-8497-4710-8faa-7cd553d2de98"/>
        <resource>
            <Organization>
                <id value="ncsr-operator"/>
                <identifier>
                    <type>
                        <coding>
                            <system value="http://terminology.hl7.org.au/CodeSystem/v2-0203"/>
                            <code value="NOI"/>
                            <display value="National Organisation Identifier"/>
                        </coding>
                        <text value="PAI-O"/>
                    </type>
                    <system value="http://ns.electronichealth.net.au/id/pcehr/paio/1.0"/>
                    <value value="TBD"/>
                </identifier>
                <name value="National Cancer Screening Register system operator"/>
            </Organization>
        </resource>
    </entry>
    <!--    OBSERVATION    -->
    <entry>
        <fullUrl value="urn:uuid:e7e22c3f-eb2c-4c26-9fb9-459079e36397"/>
        <resource>
            <Observation>
                <id value="program-participation-nbcsp-01"/>
                <!--Scenario: New to NBCSP (2022)
    Scenario Description: Patient is aged 50 and first Bowel Program round has opened. 
    Person will be sent invitation and Bowel Kit. They are now eligible and due.   -->
                <!--update to id from pcehr doc registration?-->
                <meta>
                    <lastUpdated value="2022-02-15T07:15:15+10:00"/>
                </meta>
                <identifier>
                    <system value="urn:ietf:rfc:4122"/>
                    <value value="d36d2cf5-6dfb-4d10-811f-1e2229489423"/>
                </identifier>
                <status value="final"/>
                <!-- therapy or ?-->
                <category>
                    <coding>
                        <system value="http://terminology.hl7.org/CodeSystem/observation-category"/>
                        <code value="therapy"/>
                        <display value="Therapy"/>
                    </coding>
                    <text value="Cancer screening program"/>
                </category>
                <code>
                    <coding>
                        <system value="http://snomed.info/sct"/>
                        <code value="1602081000168109"/>
                        <display value="National bowel cancer screening program participation"/>
                    </coding>
                    <text value="National Bowel Cancer Screening Program Participation"/>
                </code>
                <subject>
                    <reference value="urn:uuid:6b449e98-cceb-40eb-9492-eac90ecedeb5"/>
                    <identifier>
                        <type>
                            <coding>
                                <system value="http://terminology.hl7.org/CodeSystem/v2-0203"/>
                                <code value="NI"/>
                                <display value="National unique individual identifier"/>
                            </coding>
                            <text value="IHI"/>
                        </type>
                        <system value="http://ns.electronichealth.net.au/id/hi/ihi/1.0"/>
                        <value value="8003608000228437"/>
                    </identifier>
                </subject>
                <!--Records date this program participation information is asserted as 'true' -->
                <effectiveDateTime value="2022-02-05T09:01:00+10:00"/>
                <performer>
                    <reference value="urn:uuid:447b3451-8497-4710-8faa-7cd553d2de98"/>
                    <identifier>
                        <type>
                            <coding>
                                <system value="http://terminology.hl7.org.au/CodeSystem/v2-0203"/>
                                <code value="NOI"/>
                                <display value="National Organisation Identifier"/>
                            </coding>
                            <text value="PAI-O"/>
                        </type>
                        <system value="http://ns.electronichealth.net.au/id/pcehr/paio/1.0"/>
                        <value value="TBD"/>
                    </identifier>
                </performer>
                <!--1.	Program participation status -->
                <component>
                    <code>
                        <coding>
                            <system value="http://snomed.info/sct"/>
                            <code value="1603781000168102"/>
                            <display value="Program participation status"/>
                        </coding>
                        <text value="Participant status"/>
                    </code>
                    <valueCodeableConcept>
                        <coding>
                            <system value="http://snomed.info/sct"/>
                            <code value="1601971000168104"/>
                            <display value="New participation"/>
                        </coding>
                        <text value="New to screening"/>
                    </valueCodeableConcept>
                </component>
                <!--2.	Program participation status validity period -->
                <component>
                    <code>
                        <coding>
                            <system value="http://snomed.info/sct"/>
                            <code value="1603791000168104"/>
                            <display value="Program participation status period"/>
                        </coding>
                        <text value="Participant status period"/>
                    </code>
                    <!--Patient has not deferred so no end period is provided-->
                    <valuePeriod>
                        <start value="2022-02-05"/>
                    </valuePeriod>
                </component>
                <!--3.	Suspension of program participation -->
                <component>
                    <code>
                        <coding>
                            <system value="http://snomed.info/sct"/>
                            <code value="1603871000168108"/>
                            <display value="Program participation suspension indicator"/>
                        </coding>
                        <text value="Defer flag"/>
                    </code>
                    <!--Patient has not deferred-->
                    <valueBoolean value="false"/>
                </component>
                <!--13. Forecast status -->
                <component>
                    <code>
                        <coding>
                            <system value="http://snomed.info/sct"/>
                            <code value="1604041000168107"/>
                            <display value="Program forecast status"/>
                        </coding>
                        <text value="Next screening action"/>
                    </code>
                    <valueCodeableConcept>
                        <text value="Due Now (eligible since 50th birthday)"/>
                    </valueCodeableConcept>
                </component>
                <!--14.	Forecast status validity period is not provided in this scenario-->
            </Observation>
        </resource>
    </entry>
</Bundle>
