<?xml version="1.0" encoding="UTF-8"?>
<Bundle xmlns="http://hl7.org/fhir">
    <id value="vpr-02"/>
    <!--Sample design for Voluntary Patient Registration project - patient has a registered GP practice and practitioner-->
    <type value="collection"/>
    <timestamp value="2022-10-28T11:01:00+10:00"/>
    <!--    PATIENT   -->
    <entry>
        <fullUrl value="urn:uuid:cb7921cc-ba17-11ec-833a-b1763b0a7715"/>
        <resource>
            <Patient xmlns="http://hl7.org/fhir">
                <meta>
                    <profile value="http://ns.electronichealth.net.au/fhir/StructureDefinition/dh-patient-core-1"/>
                </meta>
                <identifier>
                    <use value="official"/>
                    <type>
                        <coding>
                            <system value="http://terminology.hl7.org/CodeSystem/v2-0203"/>
                            <code value="NI"/>
                        </coding>
                        <text value="IHI"/>
                    </type>
                    <system value="http://ns.electronichealth.net.au/id/hi/ihi/1.0"/>
                    <value value="8003608833564727"/>
                </identifier>
                <name>
                    <use value="usual"/>
                    <text value="Bert Gainey"/>
                    <family value="Gainey"/>
                </name>
                <gender value="male"/>
                <birthDate value="1971-09-24"/>
                <generalPractitioner> 
                    <reference value="urn:uuid:cb7921cc-ba17-11ec-833a-b1763b0a7716"/> 
                </generalPractitioner>
                <!--Practitioner's name - only if additional data is shared should this be a full PractitionerRole resource-->
                <generalPractitioner> 
                    <type value="PractitionerRole"/>
                    <display value="Dr Sophia Yu"/> 
                </generalPractitioner>
            </Patient>
        </resource>
    </entry>
    <!--GP Practice is an Organization resource-->
    <entry>
        <fullUrl value="urn:uuid:cb7921cc-ba17-11ec-833a-b1763b0a7716"/>
        <resource>
            <Organization>
                <meta>
                    <profile
                        value="http://ns.electronichealth.net.au/fhir/StructureDefinition/dh-organization-core-1"/>
                </meta>
                <type>
                    <coding>
                        <system value="http://snomed.info/sct"/>
                        <code value="394761003"/>
                    </coding>
                    <text value="GP practice"/>
                </type>
                <name value="ABC Medical Clinic"/>
                <telecom>
                    <system value="phone"/>
                    <value value="(02) 5550 2427"/>
                    <use value="work"/>
                </telecom>
                <address>
                    <use value="work"/>
                    <line value="Andrew Fisher Building"/>
                    <line value="1 National Circuit"/>
                    <city value="Barton"/>
                    <state value="ACT"/>
                    <postalCode value="2600"/>
                </address>
            </Organization>
        </resource>
    </entry>
    <!--Represents current GP Practice using EpisodeOfCare-->
    <entry>
        <fullUrl value="urn:uuid:cec6e9d8-6b61-432a-85e5-93c0558e66eb"/>
        <resource>
            <EpisodeOfCare>
                <meta>
                    <profile value="http://ns.electronichealth.net.au/fhir/StructureDefinition/dh-episodeofcare-mymedicare-1"/>
                </meta>
                <!--current represented by status=active-->
                <status value="active"/> 
                <type>
                    <coding>
                        <system value="http://snomed.info/sct"/>
                        <code value="737470001"/>
                        <display value="Primary care management"/>
                    </coding>
                </type> 
                <patient> 
                    <reference value="urn:uuid:cb7921cc-ba17-11ec-833a-b1763b0a7715"/>
                    <identifier>
                        <type>
                            <coding>
                                <system value="http://terminology.hl7.org/CodeSystem/v2-0203"/>
                                <code value="NI"/>
                            </coding>
                            <text value="IHI"/>
                        </type>
                        <system value="http://ns.electronichealth.net.au/id/hi/ihi/1.0"/>
                        <value value="8003608833564727"/>
                    </identifier> 
                </patient> 
                <managingOrganization> 
                    <reference value="urn:uuid:cb7921cc-ba17-11ec-833a-b1763b0a7716"/> 
                </managingOrganization> 
                <!--current represented by no period.end-->
                <period> 
                    <start value="2021-06-13"/> 
                </period> 
            </EpisodeOfCare>
        </resource>
    </entry>
</Bundle>
