<?xml version="1.0" encoding="UTF-8"?>
<Bundle xmlns="http://hl7.org/fhir">
    <id value="air-01"/>
    <!--Bundle of the set of resources that make up the AIR for Patient Sally FIELD IHI 8003608833357361 generated by MHR system on request by CIS via TBD-->
    <meta>
        <lastUpdated value="2022-03-28T11:01:00+10:00"/>
    </meta>
    <identifier>
        <system value="urn:ietf:rfc:3986"/>
        <value value="urn:uuid:475db616-dfd5-43f3-b935-9f582233a38d"/>
    </identifier>
    <type value="collection"/>
    <timestamp value="2022-03-28T11:01:00+10:00"/>
    <!--    PATIENT    -->
    <entry>
        <fullUrl value="urn:uuid:3fe721b9-2258-4707-a9cf-c13dd7d03747"/>
        <resource>
            <Patient>
                <id value="mhr-field-sally"/>
                <extension url="http://hl7.org.au/fhir/StructureDefinition/indigenous-status">
                    <valueCoding>
                        <system
                            value="https://healthterminologies.gov.au/fhir/CodeSystem/australian-indigenous-status-1"/>
                        <code value="4"/>
                        <display value="Neither Aboriginal nor Torres Strait Islander origin"/>
                    </valueCoding>
                </extension>
                <identifier>
                    <use value="official"/>
                    <type>
                        <coding>
                            <system value="http://terminology.hl7.org/CodeSystem/v2-0203"/>
                            <code value="NI"/>
                            <display value="National unique individual identifier"/>
                        </coding>
                    </type>
                    <system value="http://ns.electronichealth.net.au/id/hi/ihi/1.0"/>
                    <value value="8003608333563104"/>
                </identifier>
                <name>
                    <use value="usual"/>
                    <family value="FIELD"/>
                    <given value="Sally"/>
                    <prefix value="Ms."/>
                </name>
                <gender value="female"/>    
                <birthDate value="1999-02-14"/>
            </Patient>
        </resource>
    </entry>
    <!--    ORGANIZATION MEDICARE REPSITORY SERVICE   -->
    <entry>
        <fullUrl value="urn:uuid:fc3a8c62-1b01-4971-8e46-5c5fdd1c6082"/>
        <resource>
            <Organization>
                <id value="medicare-rs-operator"/>
                <identifier>
                    <type>
                        <coding>
                            <system value="http://terminology.hl7.org.au/CodeSystem/v2-0203"/>
                            <code value="NOI"/>
                            <display value="National Organisation Identifier"/>
                        </coding>
                        <text value="PAI-O"/>
                    </type>
                    <system value="http://ns.electronichealth.net.au/id/pcehr/paio/1.0"/>
                    <value value="8003640001000010"/>
                </identifier>
                <name value="Medicare Australia repository services operator"/>
            </Organization>
        </resource>
    </entry>
    <!--    FLAG (air-01) -->
    <entry>
        <fullUrl value="urn:uuid:949133cb-de9a-44a7-b3d3-bd0e9d9d2faf"/>
        <resource>
            <Flag>
                <id value="air-02" />
                <!--identifier from Bundle uploaded from AIR Medicare repository-->
                <identifier>
                    <system value="urn:ietf:rfc:3986"/>
                    <value value="urn:uuid:475db616-dfd5-43f3-b935-9f582233a38d" />
                </identifier>
                <status value="active" />
                <category>
                    <coding>
                        <system value="http://snomed.info/sct" />
                        <code value="1500551000168103" />
                    </coding>
                    <text value="Australian Immunisation Register notice" />
                </category>
                <code>
                    <text value="Natural immunity to Measles recorded on 28 Oct 2020."/>
                </code>
                <subject>
                    <reference value="urn:uuid:3fe721b9-2258-4707-a9cf-c13dd7d03747"/>
                    <identifier>
                        <type>
                            <coding>
                                <system value="http://terminology.hl7.org/CodeSystem/v2-0203"/>
                                <code value="NI"/>
                                <display value="National unique individual identifier"/>
                            </coding>
                            <text value="IHI"/>
                        </type>
                        <system value="http://ns.electronichealth.net.au/id/hi/ihi/1.0"/>
                        <value value="8003608833357361"/>
                    </identifier>
                </subject>
                <author>
                    <reference value="urn:uuid:fc3a8c62-1b01-4971-8e46-5c5fdd1c6082"/>
                    <identifier>
                        <type>
                            <coding>
                                <system value="http://terminology.hl7.org.au/CodeSystem/v2-0203"/>
                                <code value="NOI"/>
                                <display value="National Organisation Identifier"/>
                            </coding>
                            <text value="PAI-O"/>
                        </type>
                        <system value="http://ns.electronichealth.net.au/id/pcehr/paio/1.0"/>
                        <value value="8003640001000036"/>
                    </identifier>
                </author>
            </Flag>
        </resource>
    </entry>
    <!--    IMMUNIZATION (air-covid-01)    -->
    <entry>
        <fullUrl value="urn:uuid:6455b6e5-e7bc-4f04-be8d-899bc3d2fe22"/>
        <resource>
            <Immunization>
                <id value="air-covid-01"/>
                <extension url="http://hl7.org.au/fhir/StructureDefinition/vaccine-serial-number">
                    <!--Vial serial number below does not conform to reporting requirements to avoid conflict with real world values-->
                    <valueString value="vNo1111"/>
                </extension>
                <!--identifier from Bundle uploaded from AIR Medicare repository-->
                <identifier>
                    <system value="urn:ietf:rfc:3986"/>
                    <value value="urn:uuid:475db616-dfd5-43f3-b935-9f582233a38d" />
                </identifier>
                <status value="completed"/>
                <vaccineCode>
                    <coding>
                        <system value="https://www.humanservices.gov.au/organisations/health-professionals/enablers/air-vaccine-code-formats"/>
                        <code value="COMIRN"/>
                    </coding>
                    <text value="Pfizer Comirnaty"/>
                </vaccineCode>
                <patient>
                    <reference value="urn:uuid:3fe721b9-2258-4707-a9cf-c13dd7d03747"/>
                    <identifier>
                        <type>
                            <coding>
                                <system value="http://terminology.hl7.org/CodeSystem/v2-0203"/>
                                <code value="NI"/>
                                <display value="National unique individual identifier"/>
                            </coding>
                            <text value="IHI"/>
                        </type>
                        <system value="http://ns.electronichealth.net.au/id/hi/ihi/1.0"/>
                        <value value="8003608833357361"/>
                    </identifier>
                </patient>
                <occurrenceDateTime value="2021-06-17"/>
                <primarySource value="true"/>
                <protocolApplied>
                    <targetDisease>
                        <text value="COVID-19"/>
                    </targetDisease>
                    <doseNumberPositiveInt value="1"/>
                </protocolApplied>
            </Immunization>
        </resource>
    </entry>
    <!--    IMMUNIZATION (air-covid-02)    -->
    <entry>
        <fullUrl value="urn:uuid:3694f804-44b4-408e-8fd6-e18ff38e2506"/>
        <resource>
            <Immunization>
                <id value="air-covid-02"/>
                <!--identifier from Bundle uploaded from AIR Medicare repository-->
                <identifier>
                    <system value="urn:ietf:rfc:3986"/>
                    <value value="urn:uuid:475db616-dfd5-43f3-b935-9f582233a38d" />
                </identifier>
                <status value="completed"/>
                <vaccineCode>
                    <coding>
                        <system value="https://www.humanservices.gov.au/organisations/health-professionals/enablers/air-vaccine-code-formats"/>
                        <code value="COMIRN"/>
                    </coding>
                    <text value="Pfizer Comirnaty"/>
                </vaccineCode>
                <patient>
                    <reference value="urn:uuid:3fe721b9-2258-4707-a9cf-c13dd7d03747"/>
                    <identifier>
                        <type>
                            <coding>
                                <system value="http://terminology.hl7.org/CodeSystem/v2-0203"/>
                                <code value="NI"/>
                                <display value="National unique individual identifier"/>
                            </coding>
                            <text value="IHI"/>
                        </type>
                        <system value="http://ns.electronichealth.net.au/id/hi/ihi/1.0"/>
                        <value value="8003608833357361"/>
                    </identifier>
                </patient>
                <occurrenceDateTime value="2021-08-01"/>
                <primarySource value="true"/>
                <protocolApplied>
                    <targetDisease>
                        <text value="COVID-19"/>
                    </targetDisease>
                    <doseNumberPositiveInt value="2"/>
                </protocolApplied>
            </Immunization>
        </resource>
    </entry>
    <!--    IMMUNIZATION (air-covid-03)    -->
    <entry>
        <fullUrl value="urn:uuid:02a6a3de-a088-4845-9055-39dac68dfb6f"/>
        <resource>
            <Immunization>
                <id value="air-covid-03"/>
                <!--identifier from Bundle uploaded from AIR Medicare repository-->
                <identifier>
                    <system value="urn:ietf:rfc:3986"/>
                    <value value="urn:uuid:475db616-dfd5-43f3-b935-9f582233a38d" />
                </identifier>
                <status value="completed"/>
                <vaccineCode>
                    <coding>
                        <system value="https://www.humanservices.gov.au/organisations/health-professionals/enablers/air-vaccine-code-formats"/>
                        <code value="MODERN"/>
                    </coding>
                    <text value="Moderna Spikevax"/>
                </vaccineCode>
                <patient>
                    <reference value="urn:uuid:3fe721b9-2258-4707-a9cf-c13dd7d03747"/>
                    <identifier>
                        <type>
                            <coding>
                                <system value="http://terminology.hl7.org/CodeSystem/v2-0203"/>
                                <code value="NI"/>
                                <display value="National unique individual identifier"/>
                            </coding>
                            <text value="IHI"/>
                        </type>
                        <system value="http://ns.electronichealth.net.au/id/hi/ihi/1.0"/>
                        <value value="8003608833357361"/>
                    </identifier>
                </patient>
                <occurrenceDateTime value="2022-02-14"/>
                <primarySource value="true"/>
                <protocolApplied>
                    <targetDisease>
                        <text value="COVID-19"/>
                    </targetDisease>
                    <doseNumberPositiveInt value="3"/>
                </protocolApplied>
            </Immunization>
        </resource>
    </entry>
    <!--    IMMUNIZATION (air-dip-01)    -->
    <entry>
        <fullUrl value="urn:uuid:cf5c5aee-f4c7-4660-bc5f-b515c41f6168"/>
        <resource>
            <Immunization>
                <id value="air-dip-01"/>
                <!--identifier from Bundle uploaded from AIR Medicare repository-->
                <identifier>
                    <system value="urn:ietf:rfc:3986"/>
                    <value value="urn:uuid:475db616-dfd5-43f3-b935-9f582233a38d"/>
                </identifier>
                <status value="completed"/>
                
                <vaccineCode>
                    <coding>
                        <system value="https://www.humanservices.gov.au/organisations/health-professionals/enablers/air-vaccine-code-formats"/>
                        <code value="IFHX"/>
                    </coding>
                    <text value="Infanrix Hexa"/>
                </vaccineCode>
                <patient>
                    <reference value="urn:uuid:3fe721b9-2258-4707-a9cf-c13dd7d03747"/>
                    <identifier>
                        <type>
                            <coding>
                                <system value="http://terminology.hl7.org/CodeSystem/v2-0203"/>
                                <code value="NI"/>
                                <display value="National unique individual identifier"/>
                            </coding>
                            <text value="IHI"/>
                        </type>
                        <system value="http://ns.electronichealth.net.au/id/hi/ihi/1.0"/>
                        <value value="8003608833357361"/>
                    </identifier>
                </patient>
                <occurrenceDateTime value="1999-04-14"/>
                <primarySource value="true"/>
                <protocolApplied>
                    <targetDisease>
                        <text value="Diphtheria"/>
                    </targetDisease>
                    <targetDisease>
                        <text value="Tetanus"/>
                    </targetDisease>
                    <targetDisease>
                        <text value="Pertussis"/>
                    </targetDisease>
                    <targetDisease>
                        <text value="Hepatitis B"/>
                    </targetDisease>
                    <targetDisease>
                        <text value="Polio"/>
                    </targetDisease>
                    <targetDisease>
                        <text value="Hib"/>
                    </targetDisease>
                    <doseNumberPositiveInt value="1"/>
                </protocolApplied>
            </Immunization>
        </resource>
    </entry>
    <!--    IMMUNIZATION (air-dip-02)    -->
    <entry>
        <fullUrl value="urn:uuid:3fcaf325-ba30-4d10-85b1-6464c4d31a42"/>
        <resource>
            <Immunization>
                <id value="air-dip-02"/>
                <!--identifier from Bundle uploaded from AIR Medicare repository-->
                <identifier>
                    <system value="urn:ietf:rfc:3986"/>
                    <value value="urn:uuid:475db616-dfd5-43f3-b935-9f582233a38d"/>
                </identifier>
                <status value="completed"/>
                
                <vaccineCode>
                    <coding>
                        <system value="https://www.humanservices.gov.au/organisations/health-professionals/enablers/air-vaccine-code-formats"/>
                        <code value="IFHX"/>
                    </coding>
                    <text value="Infanrix Hexa"/>
                </vaccineCode>
                <patient>
                    <reference value="urn:uuid:3fe721b9-2258-4707-a9cf-c13dd7d03747"/>
                    <identifier>
                        <type>
                            <coding>
                                <system value="http://terminology.hl7.org/CodeSystem/v2-0203"/>
                                <code value="NI"/>
                                <display value="National unique individual identifier"/>
                            </coding>
                            <text value="IHI"/>
                        </type>
                        <system value="http://ns.electronichealth.net.au/id/hi/ihi/1.0"/>
                        <value value="8003608833357361"/>
                    </identifier>
                </patient>
                <occurrenceDateTime value="1999-06-14"/>
                <primarySource value="true"/>
                <protocolApplied>
                    <targetDisease>
                        <text value="Diphtheria"/>
                    </targetDisease>
                    <targetDisease>
                        <text value="Tetanus"/>
                    </targetDisease>
                    <targetDisease>
                        <text value="Pertussis"/>
                    </targetDisease>
                    <targetDisease>
                        <text value="Hepatitis B"/>
                    </targetDisease>
                    <targetDisease>
                        <text value="Polio"/>
                    </targetDisease>
                    <targetDisease>
                        <text value="Hib"/>
                    </targetDisease>
                    <doseNumberPositiveInt value="2"/>
                </protocolApplied>
            </Immunization>
        </resource>
    </entry>
    <!--    IMMUNIZATION (air-dip-03)    -->
    <entry>
        <fullUrl value="urn:uuid:ec0fd1d9-1a96-44a9-ae2e-e6df954108a8"/>
        <resource>
            <Immunization>
                <id value="air-dip-03"/>
                <!--identifier from Bundle uploaded from AIR Medicare repository-->
                <identifier>
                    <system value="urn:ietf:rfc:3986"/>
                    <value value="urn:uuid:475db616-dfd5-43f3-b935-9f582233a38d"/>
                </identifier>
                <status value="completed"/>
                
                <vaccineCode>
                    <coding>
                        <system value="https://www.humanservices.gov.au/organisations/health-professionals/enablers/air-vaccine-code-formats"/>
                        <code value="IFHX"/>
                    </coding>
                    <text value="Infanrix Hexa"/>
                </vaccineCode>
                <patient>
                    <reference value="urn:uuid:3fe721b9-2258-4707-a9cf-c13dd7d03747"/>
                    <identifier>
                        <type>
                            <coding>
                                <system value="http://terminology.hl7.org/CodeSystem/v2-0203"/>
                                <code value="NI"/>
                                <display value="National unique individual identifier"/>
                            </coding>
                            <text value="IHI"/>
                        </type>
                        <system value="http://ns.electronichealth.net.au/id/hi/ihi/1.0"/>
                        <value value="8003608833357361"/>
                    </identifier>
                </patient>
                <occurrenceDateTime value="1999-08-14"/>
                <primarySource value="true"/>
                <protocolApplied>
                    <targetDisease>
                        <text value="Diphtheria"/>
                    </targetDisease>
                    <targetDisease>
                        <text value="Tetanus"/>
                    </targetDisease>
                    <targetDisease>
                        <text value="Pertussis"/>
                    </targetDisease>
                    <targetDisease>
                        <text value="Hepatitis B"/>
                    </targetDisease>
                    <targetDisease>
                        <text value="Polio"/>
                    </targetDisease>
                    <targetDisease>
                        <text value="Hib"/>
                    </targetDisease>
                    <doseNumberPositiveInt value="3"/>
                </protocolApplied>
            </Immunization>
        </resource>
    </entry>
    <!--    IMMUNIZATION (air-dip-04)    -->
    <entry>
        <fullUrl value="urn:uuid:da0fe578-21d7-4f97-9f3e-de193d6da997"/>
        <resource>
            <Immunization>
                <id value="air-dip-04"/>
                <!--identifier from Bundle uploaded from AIR Medicare repository-->
                <identifier>
                    <system value="urn:ietf:rfc:3986"/>
                    <value value="urn:uuid:475db616-dfd5-43f3-b935-9f582233a38d"/>
                </identifier>
                <status value="completed"/>
                
                <vaccineCode>
                    <coding>
                        <system value="https://www.humanservices.gov.au/organisations/health-professionals/enablers/air-vaccine-code-formats"/>
                        <code value="IFHX"/>
                    </coding>
                    <text value="Infanrix Hexa"/>
                </vaccineCode>
                <patient>
                    <reference value="urn:uuid:3fe721b9-2258-4707-a9cf-c13dd7d03747"/>
                    <identifier>
                        <type>
                            <coding>
                                <system value="http://terminology.hl7.org/CodeSystem/v2-0203"/>
                                <code value="NI"/>
                                <display value="National unique individual identifier"/>
                            </coding>
                            <text value="IHI"/>
                        </type>
                        <system value="http://ns.electronichealth.net.au/id/hi/ihi/1.0"/>
                        <value value="8003608833357361"/>
                    </identifier>
                </patient>
                <occurrenceDateTime value="2000-08-14"/>
                <primarySource value="true"/>
                <protocolApplied>
                    <targetDisease>
                        <text value="Diphtheria"/>
                    </targetDisease>
                    <targetDisease>
                        <text value="Tetanus"/>
                    </targetDisease>
                    <targetDisease>
                        <text value="Pertussis"/>
                    </targetDisease>
                    <targetDisease>
                        <text value="Hepatitis B"/>
                    </targetDisease>
                    <targetDisease>
                        <text value="Polio"/>
                    </targetDisease>
                    <targetDisease>
                        <text value="Hib"/>
                    </targetDisease>
                    <doseNumberPositiveInt value="4"/>
                </protocolApplied>
            </Immunization>
        </resource>
    </entry>
    <!--    IMMUNIZATION (air-dip-05)    -->
    <entry>
        <fullUrl value="urn:uuid:fc682365-a035-4450-bbbb-a369b6cfaeb6"/>
        <resource>
            <Immunization>
                <id value="air-dip-05"/>
                <!--identifier from Bundle uploaded from AIR Medicare repository-->
                <identifier>
                    <system value="urn:ietf:rfc:3986"/>
                    <value value="urn:uuid:475db616-dfd5-43f3-b935-9f582233a38d"/>
                </identifier>
                <status value="completed"/>
                <vaccineCode>
                    <coding>
                        <system value="https://www.humanservices.gov.au/organisations/health-professionals/enablers/air-vaccine-code-formats"/>
                        <code value="IFHX"/>
                    </coding>
                    <text value="Infanrix Hexa"/>
                </vaccineCode>
                <patient>
                    <reference value="urn:uuid:3fe721b9-2258-4707-a9cf-c13dd7d03747"/>
                    <identifier>
                        <type>
                            <coding>
                                <system value="http://terminology.hl7.org/CodeSystem/v2-0203"/>
                                <code value="NI"/>
                                <display value="National unique individual identifier"/>
                            </coding>
                            <text value="IHI"/>
                        </type>
                        <system value="http://ns.electronichealth.net.au/id/hi/ihi/1.0"/>
                        <value value="8003608833357361"/>
                    </identifier>
                </patient>
                <occurrenceDateTime value="2003-02-14"/>
                <primarySource value="true"/>
                <protocolApplied>
                    <targetDisease>
                        <text value="Diphtheria"/>
                    </targetDisease>
                    <targetDisease>
                        <text value="Tetanus"/>
                    </targetDisease>
                    <targetDisease>
                        <text value="Pertussis"/>
                    </targetDisease>
                    <targetDisease>
                        <text value="Hepatitis B"/>
                    </targetDisease>
                    <targetDisease>
                        <text value="Polio"/>
                    </targetDisease>
                    <targetDisease>
                        <text value="Hib"/>
                    </targetDisease>
                    <doseNumberPositiveInt value="5"/>
                </protocolApplied>
            </Immunization>
        </resource>
    </entry>
    <!--    IMMUNIZATION (air-hepb-01)    -->
    <entry>
        <fullUrl value="urn:uuid:c11a84e4-bed7-4779-9331-3b3afff69cf6"/>
        <resource>
            <Immunization>
                <id value="air-hepb-01"/>
                <!--identifier from Bundle uploaded from AIR Medicare repository-->
                <identifier>
                    <system value="urn:ietf:rfc:3986"/>
                    <value value="urn:uuid:475db616-dfd5-43f3-b935-9f582233a38d"/>
                </identifier>
                <status value="completed"/>
                <vaccineCode>
                    <coding>
                        <system value="https://www.humanservices.gov.au/organisations/health-professionals/enablers/air-vaccine-code-formats"/>
                        <code value="ENGP"/>
                    </coding>
                    <text value="Engerix-B (paediatric)"/>
                </vaccineCode>
                <patient>
                    <reference value="urn:uuid:3fe721b9-2258-4707-a9cf-c13dd7d03747"/>
                    <identifier>
                        <type>
                            <coding>
                                <system value="http://terminology.hl7.org/CodeSystem/v2-0203"/>
                                <code value="NI"/>
                                <display value="National unique individual identifier"/>
                            </coding>
                            <text value="IHI"/>
                        </type>
                        <system value="http://ns.electronichealth.net.au/id/hi/ihi/1.0"/>
                        <value value="8003608833357361"/>
                    </identifier>
                </patient>
                <occurrenceDateTime value="1999-02-14"/>
                <primarySource value="true"/>
                <protocolApplied>
                    <targetDisease>
                        <text value="Hepatitis B"/>
                    </targetDisease>
                    <doseNumberPositiveInt value="1"/>
                </protocolApplied>
            </Immunization>
        </resource>
    </entry>
    <!--    IMMUNIZATION (air-infl-01)    -->
    <entry>
        <fullUrl value="urn:uuid:dba9fb92-95e1-4695-a1fb-7666861cfd07"/>
        <resource>
            <Immunization>
                <id value="air-infl-01"/>
                <!--identifier from Bundle uploaded from AIR Medicare repository-->
                <identifier>
                    <system value="urn:ietf:rfc:3986"/>
                    <value value="urn:uuid:475db616-dfd5-43f3-b935-9f582233a38d" />
                </identifier>
                <status value="completed"/>
                <vaccineCode>
                    <coding>
                        <system value="https://www.humanservices.gov.au/organisations/health-professionals/enablers/air-vaccine-code-formats"/>
                        <code value="PANVAX"/>
                    </coding>
                    <text value="Panvax"/>
                </vaccineCode>
                <patient>
                    <reference value="urn:uuid:3fe721b9-2258-4707-a9cf-c13dd7d03747"/>
                    <identifier>
                        <type>
                            <coding>
                                <system value="http://terminology.hl7.org/CodeSystem/v2-0203"/>
                                <code value="NI"/>
                                <display value="National unique individual identifier"/>
                            </coding>
                            <text value="IHI"/>
                        </type>
                        <system value="http://ns.electronichealth.net.au/id/hi/ihi/1.0"/>
                        <value value="8003608833357361"/>
                    </identifier>
                </patient>
                <occurrenceDateTime value="2020-03-01"/>
                <primarySource value="true"/>
                <protocolApplied>
                    <targetDisease>
                        <text value="Influenza"/>
                    </targetDisease>
                    <doseNumberPositiveInt value="1"/>
                </protocolApplied>
            </Immunization>
        </resource>
    </entry>
    <!--    IMMUNIZATION (air-dip-02)    -->
    <entry>
        <fullUrl value="urn:uuid:a1ad9a53-6dda-4648-9227-b39fe806d6b1"/>
        <resource>
            <Immunization>
                <id value="air-infl-02"/>
                <!--identifier from Bundle uploaded from AIR Medicare repository-->
                <identifier>
                    <system value="urn:ietf:rfc:3986"/>
                    <value value="urn:uuid:475db616-dfd5-43f3-b935-9f582233a38d" />
                </identifier>
                <status value="completed"/>
                <vaccineCode>
                    <coding>
                        <system value="https://www.humanservices.gov.au/organisations/health-professionals/enablers/air-vaccine-code-formats"/>
                        <code value="PANVAX"/>
                    </coding>
                    <text value="Panvax"/>
                </vaccineCode>
                <patient>
                    <reference value="urn:uuid:3fe721b9-2258-4707-a9cf-c13dd7d03747"/>
                    <identifier>
                        <type>
                            <coding>
                                <system value="http://terminology.hl7.org/CodeSystem/v2-0203"/>
                                <code value="NI"/>
                                <display value="National unique individual identifier"/>
                            </coding>
                            <text value="IHI"/>
                        </type>
                        <system value="http://ns.electronichealth.net.au/id/hi/ihi/1.0"/>
                        <value value="8003608833357361"/>
                    </identifier>
                </patient>
                <occurrenceDateTime value="2021-03-01"/>
                <primarySource value="true"/>
                <protocolApplied>
                    <targetDisease>
                        <text value="Influenza"/>
                    </targetDisease>
                    <doseNumberPositiveInt value="1"/>
                </protocolApplied>
            </Immunization>
        </resource>
    </entry>
    <!--    IMMUNIZATION (air-dip-03)    -->
    <entry>
        <fullUrl value="urn:uuid:1bdf2ba0-59a5-4638-9ca6-4a961ed23a7b"/>
        <resource>
            <Immunization>
                <id value="air-infl-03"/>
                <!--identifier from Bundle uploaded from AIR Medicare repository-->
                <identifier>
                    <system value="urn:ietf:rfc:3986"/>
                    <value value="urn:uuid:475db616-dfd5-43f3-b935-9f582233a38d" />
                </identifier>
                <status value="completed"/>
                <vaccineCode>
                    <coding>
                        <system value="https://www.humanservices.gov.au/organisations/health-professionals/enablers/air-vaccine-code-formats"/>
                        <code value="PANVAX"/>
                    </coding>
                    <text value="Panvax"/>
                </vaccineCode>
                <patient>
                    <reference value="urn:uuid:3fe721b9-2258-4707-a9cf-c13dd7d03747"/>
                    <identifier>
                        <type>
                            <coding>
                                <system value="http://terminology.hl7.org/CodeSystem/v2-0203"/>
                                <code value="NI"/>
                                <display value="National unique individual identifier"/>
                            </coding>
                            <text value="IHI"/>
                        </type>
                        <system value="http://ns.electronichealth.net.au/id/hi/ihi/1.0"/>
                        <value value="8003608833357361"/>
                    </identifier>
                </patient>
                <occurrenceDateTime value="2022-03-01"/>
                <primarySource value="true"/>
                <protocolApplied>
                    <targetDisease>
                        <text value="Influenza"/>
                    </targetDisease>
                    <doseNumberPositiveInt value="1"/>
                </protocolApplied>
            </Immunization>
        </resource>
    </entry>
    <!--    OBSERVATION (air-covid-imm-status-01)    -->
    <entry>
        <fullUrl value="urn:uuid:30b777d5-4f0d-42f3-b36f-ba998a9d5ca7"/>
        <resource>
            <Observation>
                <id value="air-covid-imm-status-01" />
                <identifier>
                    <system value="urn:ietf:rfc:3986"/>
                    <value value="urn:uuid:475db616-dfd5-43f3-b935-9f582233a38d"/>
                </identifier>
                <status value="final" />
                <code>
                    <coding>
                        <system value="https://healthterminologies.gov.au/fhir/CodeSystem/nctis-data-components-1" />
                        <code value="103.32029" />
                        <display value="Australian Immunisation Register COVID-19 Immunisation Status" />
                    </coding>
                    <coding>
                        <system value="http://loinc.org" />
                        <code value="97155-6" />
                        <display value="SARS coronavirus 2 (COVID-19) immunization status" />
                    </coding>
                </code>
                <subject>
                    <reference value="urn:uuid:3fe721b9-2258-4707-a9cf-c13dd7d03747"/>
                    <identifier>
                        <type>
                            <coding>
                                <system value="http://terminology.hl7.org/CodeSystem/v2-0203"/>
                                <code value="NI"/>
                                <display value="National unique individual identifier"/>
                            </coding>
                            <text value="IHI"/>
                        </type>
                        <system value="http://ns.electronichealth.net.au/id/hi/ihi/1.0"/>
                        <value value="8003608833357361"/>
                    </identifier>
                </subject>
                <effectiveDateTime value="2022-02-15T01:02:00+10:00"/>
                <performer>
                    <reference value="urn:uuid:fc3a8c62-1b01-4971-8e46-5c5fdd1c6082"/>
                    <identifier>
                        <type>
                            <coding>
                                <system value="http://terminology.hl7.org.au/CodeSystem/v2-0203"/>
                                <code value="NOI"/>
                                <display value="National Organisation Identifier"/>
                            </coding>
                            <text value="PAI-O"/>
                        </type>
                        <system value="http://ns.electronichealth.net.au/id/pcehr/paio/1.0"/>
                        <value value="8003640001000036"/>
                    </identifier>
                </performer>
                <valueCodeableConcept>
                    <text value="This individual has received all required COVID-19 vaccines." />
                </valueCodeableConcept>
            </Observation>
        </resource>
    </entry>
</Bundle>
