<?xml version="1.0" encoding="UTF-8"?>
<Bundle xmlns="http://hl7.org/fhir">
    <id value="medicare-view-cont-01"/>
    <!--Payload Bundle of Medicare Overview for Patient Sally FIELD IHI 8003608833357361 generated by MHR system (28 MARCH 2022)-->
    <meta>
        <lastUpdated value="2022-03-28T11:01:00+10:00"/>
        <profile value="http://ns.electronichealth.net.au/fhir/StructureDefinition/dh-bundle-payload-1"/>
    </meta>
    <identifier>
        <system value="urn:ietf:rfc:3986"/>
        <value value="urn:uuid:6c609115-94ec-40bc-b72e-3ce9e98cf2e8"/>
    </identifier>
    <type value="collection"/>
    <timestamp value="2022-03-28T11:01:00+10:00"/>
    <!--    PATIENT    -->
    <entry>
        <fullUrl value="urn:uuid:00a15820-c576-4706-91f2-c9ea40245650"/>
        <resource>
            <Patient>
                <id value="mhr-field-sally"/>
                <extension url="http://hl7.org.au/fhir/StructureDefinition/indigenous-status">
                    <valueCoding>
                        <system
                            value="https://healthterminologies.gov.au/fhir/CodeSystem/australian-indigenous-status-1"/>
                        <code value="4"/>
                        <display value="Neither Aboriginal nor Torres Strait Islander origin"/>
                    </valueCoding>
                </extension>
                <identifier>
                    <use value="official"/>
                    <type>
                        <coding>
                            <system value="http://terminology.hl7.org/CodeSystem/v2-0203"/>
                            <code value="NI"/>
                            <display value="National unique individual identifier"/>
                        </coding>
                    </type>
                    <system value="http://ns.electronichealth.net.au/id/hi/ihi/1.0"/>
                    <value value="8003608333563104"/>
                </identifier>
                <name>
                    <use value="usual"/>
                    <family value="FIELD"/>
                    <given value="Sally"/>
                    <prefix value="Ms."/>
                </name>
                <gender value="female"/>    
                <birthDate value="1999-02-14"/>
            </Patient>
        </resource>
    </entry>
    <!--    ORGANIZATION MEDICARE REPSITORY SERVICE   -->
    <entry>
        <fullUrl value="urn:uuid:706017d2-7c60-40e7-af9e-36c68ee80524"/>
        <resource>
            <Organization>
                <id value="medicare-rs-operator"/>
                <identifier>
                    <type>
                        <coding>
                            <system value="http://terminology.hl7.org.au/CodeSystem/v2-0203"/>
                            <code value="NOI"/>
                            <display value="National Organisation Identifier"/>
                        </coding>
                        <text value="PAI-O"/>
                    </type>
                    <system value="http://ns.electronichealth.net.au/id/pcehr/paio/1.0"/>
                    <value value="8003640001000010"/>
                </identifier>
                <name value="Medicare Australia repository services operator"/>
            </Organization>
        </resource>
    </entry>
    <!--    FLAG (air-01) -->
    <entry>
        <fullUrl value="urn:uuid:ca633a75-23e9-48bd-8e9f-b1b347e2c6a0"/>
        <resource>
            <Flag>
                <id value="air-02" />
                <!--identifier for the AIR record from AIR Medicare repository-->
                <identifier>
                    <system value="urn:ietf:rfc:3986"/>
                    <value value="urn:uuid:475db616-dfd5-43f3-b935-9f582233a38d" />
                </identifier>
                <status value="active" />
                <category>
                    <coding>
                        <system value="http://snomed.info/sct" />
                        <code value="1500551000168103" />
                    </coding>
                    <text value="Australian Immunisation Register notice" />
                </category>
                <code>
                    <text value="Natural immunity to Measles recorded on 28 Oct 2020."/>
                </code>
                <subject>
                    <reference value="urn:uuid:00a15820-c576-4706-91f2-c9ea40245650"/>
                    <identifier>
                        <type>
                            <coding>
                                <system value="http://terminology.hl7.org/CodeSystem/v2-0203"/>
                                <code value="NI"/>
                                <display value="National unique individual identifier"/>
                            </coding>
                            <text value="IHI"/>
                        </type>
                        <system value="http://ns.electronichealth.net.au/id/hi/ihi/1.0"/>
                        <value value="8003608833357361"/>
                    </identifier>
                </subject>
                <author>
                    <reference value="urn:uuid:706017d2-7c60-40e7-af9e-36c68ee80524"/>
                    <identifier>
                        <type>
                            <coding>
                                <system value="http://terminology.hl7.org.au/CodeSystem/v2-0203"/>
                                <code value="NOI"/>
                                <display value="National Organisation Identifier"/>
                            </coding>
                            <text value="PAI-O"/>
                        </type>
                        <system value="http://ns.electronichealth.net.au/id/pcehr/paio/1.0"/>
                        <value value="8003640001000036"/>
                    </identifier>
                </author>
            </Flag>
        </resource>
    </entry>
    <!--    IMMUNIZATION (air-covid-01)    -->
    <entry>
        <fullUrl value="urn:uuid:d9cab476-b4c3-4195-922e-f31e6d8f1fc3"/>
        <resource>
            <Immunization>
                <id value="air-covid-01"/>
                <extension url="http://hl7.org.au/fhir/StructureDefinition/vaccine-serial-number">
                    <!--Vial serial number below does not conform to reporting requirements to avoid conflict with real world values-->
                    <valueString value="vNo1111"/>
                </extension>
                <!--identifier for the AIR record from AIR Medicare repository-->
                <identifier>
                    <system value="urn:ietf:rfc:3986"/>
                    <value value="urn:uuid:475db616-dfd5-43f3-b935-9f582233a38d" />
                </identifier>
                <status value="completed"/>
                <vaccineCode>
                    <coding>
                        <system value="https://www.humanservices.gov.au/organisations/health-professionals/enablers/air-vaccine-code-formats"/>
                        <code value="COMIRN"/>
                    </coding>
                    <text value="Pfizer Comirnaty"/>
                </vaccineCode>
                <patient>
                    <reference value="urn:uuid:00a15820-c576-4706-91f2-c9ea40245650"/>
                    <identifier>
                        <type>
                            <coding>
                                <system value="http://terminology.hl7.org/CodeSystem/v2-0203"/>
                                <code value="NI"/>
                                <display value="National unique individual identifier"/>
                            </coding>
                            <text value="IHI"/>
                        </type>
                        <system value="http://ns.electronichealth.net.au/id/hi/ihi/1.0"/>
                        <value value="8003608833357361"/>
                    </identifier>
                </patient>
                <occurrenceDateTime value="2021-06-17"/>
                <primarySource value="true"/>
                <protocolApplied>
                    <targetDisease>
                        <text value="COVID-19"/>
                    </targetDisease>
                    <doseNumberPositiveInt value="1"/>
                </protocolApplied>
            </Immunization>
        </resource>
    </entry>
    <!--    IMMUNIZATION (air-covid-02)    -->
    <entry>
        <fullUrl value="urn:uuid:31384a72-1f5d-48ed-be94-213d8dfbb7ce"/>
        <resource>
            <Immunization>
                <id value="air-covid-02"/>
                <!--identifier for the AIR record from AIR Medicare repository-->
                <identifier>
                    <system value="urn:ietf:rfc:3986"/>
                    <value value="urn:uuid:475db616-dfd5-43f3-b935-9f582233a38d" />
                </identifier>
                <status value="completed"/>
                <vaccineCode>
                    <coding>
                        <system value="https://www.humanservices.gov.au/organisations/health-professionals/enablers/air-vaccine-code-formats"/>
                        <code value="COMIRN"/>
                    </coding>
                    <text value="Pfizer Comirnaty"/>
                </vaccineCode>
                <patient>
                    <reference value="urn:uuid:00a15820-c576-4706-91f2-c9ea40245650"/>
                    <identifier>
                        <type>
                            <coding>
                                <system value="http://terminology.hl7.org/CodeSystem/v2-0203"/>
                                <code value="NI"/>
                                <display value="National unique individual identifier"/>
                            </coding>
                            <text value="IHI"/>
                        </type>
                        <system value="http://ns.electronichealth.net.au/id/hi/ihi/1.0"/>
                        <value value="8003608833357361"/>
                    </identifier>
                </patient>
                <occurrenceDateTime value="2021-08-01"/>
                <primarySource value="true"/>
                <protocolApplied>
                    <targetDisease>
                        <text value="COVID-19"/>
                    </targetDisease>
                    <doseNumberPositiveInt value="2"/>
                </protocolApplied>
            </Immunization>
        </resource>
    </entry>
    <!--    IMMUNIZATION (air-covid-03)    -->
    <entry>
        <fullUrl value="urn:uuid:ac7e8a75-c615-48c6-8058-6b9a356494a1"/>
        <resource>
            <Immunization>
                <id value="air-covid-03"/>
                <!--identifier for the AIR record from AIR Medicare repository-->
                <identifier>
                    <system value="urn:ietf:rfc:3986"/>
                    <value value="urn:uuid:475db616-dfd5-43f3-b935-9f582233a38d" />
                </identifier>
                <status value="completed"/>
                <vaccineCode>
                    <coding>
                        <system value="https://www.humanservices.gov.au/organisations/health-professionals/enablers/air-vaccine-code-formats"/>
                        <code value="MODERN"/>
                    </coding>
                    <text value="Moderna Spikevax"/>
                </vaccineCode>
                <patient>
                    <reference value="urn:uuid:00a15820-c576-4706-91f2-c9ea40245650"/>
                    <identifier>
                        <type>
                            <coding>
                                <system value="http://terminology.hl7.org/CodeSystem/v2-0203"/>
                                <code value="NI"/>
                                <display value="National unique individual identifier"/>
                            </coding>
                            <text value="IHI"/>
                        </type>
                        <system value="http://ns.electronichealth.net.au/id/hi/ihi/1.0"/>
                        <value value="8003608833357361"/>
                    </identifier>
                </patient>
                <occurrenceDateTime value="2022-02-14"/>
                <primarySource value="true"/>
                <protocolApplied>
                    <targetDisease>
                        <text value="COVID-19"/>
                    </targetDisease>
                    <doseNumberPositiveInt value="3"/>
                </protocolApplied>
            </Immunization>
        </resource>
    </entry>
    <!--    IMMUNIZATION (air-dip-01)    -->
    <entry>
        <fullUrl value="urn:uuid:75b63f15-51f4-48b7-8f25-4ae15586d6e3"/>
        <resource>
            <Immunization>
                <id value="air-dip-01"/>
                <!--identifier for the AIR record from AIR Medicare repository-->
                <identifier>
                    <system value="urn:ietf:rfc:3986"/>
                    <value value="urn:uuid:475db616-dfd5-43f3-b935-9f582233a38d"/>
                </identifier>
                <status value="completed"/>
                
                <vaccineCode>
                    <coding>
                        <system value="https://www.humanservices.gov.au/organisations/health-professionals/enablers/air-vaccine-code-formats"/>
                        <code value="IFHX"/>
                    </coding>
                    <text value="Infanrix Hexa"/>
                </vaccineCode>
                <patient>
                    <reference value="urn:uuid:00a15820-c576-4706-91f2-c9ea40245650"/>
                    <identifier>
                        <type>
                            <coding>
                                <system value="http://terminology.hl7.org/CodeSystem/v2-0203"/>
                                <code value="NI"/>
                                <display value="National unique individual identifier"/>
                            </coding>
                            <text value="IHI"/>
                        </type>
                        <system value="http://ns.electronichealth.net.au/id/hi/ihi/1.0"/>
                        <value value="8003608833357361"/>
                    </identifier>
                </patient>
                <occurrenceDateTime value="1999-04-14"/>
                <primarySource value="true"/>
                <protocolApplied>
                    <targetDisease>
                        <text value="Diphtheria"/>
                    </targetDisease>
                    <targetDisease>
                        <text value="Tetanus"/>
                    </targetDisease>
                    <targetDisease>
                        <text value="Pertussis"/>
                    </targetDisease>
                    <targetDisease>
                        <text value="Hepatitis B"/>
                    </targetDisease>
                    <targetDisease>
                        <text value="Polio"/>
                    </targetDisease>
                    <targetDisease>
                        <text value="Hib"/>
                    </targetDisease>
                    <doseNumberPositiveInt value="1"/>
                </protocolApplied>
            </Immunization>
        </resource>
    </entry>
    <!--    IMMUNIZATION (air-dip-02)    -->
    <entry>
        <fullUrl value="urn:uuid:182128f7-1e7c-4e22-8067-bb14d7dec767"/>
        <resource>
            <Immunization>
                <id value="air-dip-02"/>
                <!--identifier for the AIR record from AIR Medicare repository-->
                <identifier>
                    <system value="urn:ietf:rfc:3986"/>
                    <value value="urn:uuid:475db616-dfd5-43f3-b935-9f582233a38d"/>
                </identifier>
                <status value="completed"/>
                
                <vaccineCode>
                    <coding>
                        <system value="https://www.humanservices.gov.au/organisations/health-professionals/enablers/air-vaccine-code-formats"/>
                        <code value="IFHX"/>
                    </coding>
                    <text value="Infanrix Hexa"/>
                </vaccineCode>
                <patient>
                    <reference value="urn:uuid:00a15820-c576-4706-91f2-c9ea40245650"/>
                    <identifier>
                        <type>
                            <coding>
                                <system value="http://terminology.hl7.org/CodeSystem/v2-0203"/>
                                <code value="NI"/>
                                <display value="National unique individual identifier"/>
                            </coding>
                            <text value="IHI"/>
                        </type>
                        <system value="http://ns.electronichealth.net.au/id/hi/ihi/1.0"/>
                        <value value="8003608833357361"/>
                    </identifier>
                </patient>
                <occurrenceDateTime value="1999-06-14"/>
                <primarySource value="true"/>
                <protocolApplied>
                    <targetDisease>
                        <text value="Diphtheria"/>
                    </targetDisease>
                    <targetDisease>
                        <text value="Tetanus"/>
                    </targetDisease>
                    <targetDisease>
                        <text value="Pertussis"/>
                    </targetDisease>
                    <targetDisease>
                        <text value="Hepatitis B"/>
                    </targetDisease>
                    <targetDisease>
                        <text value="Polio"/>
                    </targetDisease>
                    <targetDisease>
                        <text value="Hib"/>
                    </targetDisease>
                    <doseNumberPositiveInt value="2"/>
                </protocolApplied>
            </Immunization>
        </resource>
    </entry>
    <!--    IMMUNIZATION (air-dip-03)    -->
    <entry>
        <fullUrl value="urn:uuid:a8f45a2d-3b86-4857-be2a-cd5518a7d6f3"/>
        <resource>
            <Immunization>
                <id value="air-dip-03"/>
                <!--identifier for the AIR record from AIR Medicare repository-->
                <identifier>
                    <system value="urn:ietf:rfc:3986"/>
                    <value value="urn:uuid:475db616-dfd5-43f3-b935-9f582233a38d"/>
                </identifier>
                <status value="completed"/>
                
                <vaccineCode>
                    <coding>
                        <system value="https://www.humanservices.gov.au/organisations/health-professionals/enablers/air-vaccine-code-formats"/>
                        <code value="IFHX"/>
                    </coding>
                    <text value="Infanrix Hexa"/>
                </vaccineCode>
                <patient>
                    <reference value="urn:uuid:00a15820-c576-4706-91f2-c9ea40245650"/>
                    <identifier>
                        <type>
                            <coding>
                                <system value="http://terminology.hl7.org/CodeSystem/v2-0203"/>
                                <code value="NI"/>
                                <display value="National unique individual identifier"/>
                            </coding>
                            <text value="IHI"/>
                        </type>
                        <system value="http://ns.electronichealth.net.au/id/hi/ihi/1.0"/>
                        <value value="8003608833357361"/>
                    </identifier>
                </patient>
                <occurrenceDateTime value="1999-08-14"/>
                <primarySource value="true"/>
                <protocolApplied>
                    <targetDisease>
                        <text value="Diphtheria"/>
                    </targetDisease>
                    <targetDisease>
                        <text value="Tetanus"/>
                    </targetDisease>
                    <targetDisease>
                        <text value="Pertussis"/>
                    </targetDisease>
                    <targetDisease>
                        <text value="Hepatitis B"/>
                    </targetDisease>
                    <targetDisease>
                        <text value="Polio"/>
                    </targetDisease>
                    <targetDisease>
                        <text value="Hib"/>
                    </targetDisease>
                    <doseNumberPositiveInt value="3"/>
                </protocolApplied>
            </Immunization>
        </resource>
    </entry>
    <!--    IMMUNIZATION (air-dip-04)    -->
    <entry>
        <fullUrl value="urn:uuid:f032839e-c4c5-454a-b1ac-f39c9fbd08b7"/>
        <resource>
            <Immunization>
                <id value="air-dip-04"/>
                <!--identifier for the AIR record from AIR Medicare repository-->
                <identifier>
                    <system value="urn:ietf:rfc:3986"/>
                    <value value="urn:uuid:475db616-dfd5-43f3-b935-9f582233a38d"/>
                </identifier>
                <status value="completed"/>
                
                <vaccineCode>
                    <coding>
                        <system value="https://www.humanservices.gov.au/organisations/health-professionals/enablers/air-vaccine-code-formats"/>
                        <code value="IFHX"/>
                    </coding>
                    <text value="Infanrix Hexa"/>
                </vaccineCode>
                <patient>
                    <reference value="urn:uuid:00a15820-c576-4706-91f2-c9ea40245650"/>
                    <identifier>
                        <type>
                            <coding>
                                <system value="http://terminology.hl7.org/CodeSystem/v2-0203"/>
                                <code value="NI"/>
                                <display value="National unique individual identifier"/>
                            </coding>
                            <text value="IHI"/>
                        </type>
                        <system value="http://ns.electronichealth.net.au/id/hi/ihi/1.0"/>
                        <value value="8003608833357361"/>
                    </identifier>
                </patient>
                <occurrenceDateTime value="2000-08-14"/>
                <primarySource value="true"/>
                <protocolApplied>
                    <targetDisease>
                        <text value="Diphtheria"/>
                    </targetDisease>
                    <targetDisease>
                        <text value="Tetanus"/>
                    </targetDisease>
                    <targetDisease>
                        <text value="Pertussis"/>
                    </targetDisease>
                    <targetDisease>
                        <text value="Hepatitis B"/>
                    </targetDisease>
                    <targetDisease>
                        <text value="Polio"/>
                    </targetDisease>
                    <targetDisease>
                        <text value="Hib"/>
                    </targetDisease>
                    <doseNumberPositiveInt value="4"/>
                </protocolApplied>
            </Immunization>
        </resource>
    </entry>
    <!--    IMMUNIZATION (air-dip-05)    -->
    <entry>
        <fullUrl value="urn:uuid:5c4588c8-c797-40a4-a692-0ed94fbabef3"/>
        <resource>
            <Immunization>
                <id value="air-dip-05"/>
                <!--identifier for the AIR record from AIR Medicare repository-->
                <identifier>
                    <system value="urn:ietf:rfc:3986"/>
                    <value value="urn:uuid:475db616-dfd5-43f3-b935-9f582233a38d"/>
                </identifier>
                <status value="completed"/>
                <vaccineCode>
                    <coding>
                        <system value="https://www.humanservices.gov.au/organisations/health-professionals/enablers/air-vaccine-code-formats"/>
                        <code value="IFHX"/>
                    </coding>
                    <text value="Infanrix Hexa"/>
                </vaccineCode>
                <patient>
                    <reference value="urn:uuid:00a15820-c576-4706-91f2-c9ea40245650"/>
                    <identifier>
                        <type>
                            <coding>
                                <system value="http://terminology.hl7.org/CodeSystem/v2-0203"/>
                                <code value="NI"/>
                                <display value="National unique individual identifier"/>
                            </coding>
                            <text value="IHI"/>
                        </type>
                        <system value="http://ns.electronichealth.net.au/id/hi/ihi/1.0"/>
                        <value value="8003608833357361"/>
                    </identifier>
                </patient>
                <occurrenceDateTime value="2003-02-14"/>
                <primarySource value="true"/>
                <protocolApplied>
                    <targetDisease>
                        <text value="Diphtheria"/>
                    </targetDisease>
                    <targetDisease>
                        <text value="Tetanus"/>
                    </targetDisease>
                    <targetDisease>
                        <text value="Pertussis"/>
                    </targetDisease>
                    <targetDisease>
                        <text value="Hepatitis B"/>
                    </targetDisease>
                    <targetDisease>
                        <text value="Polio"/>
                    </targetDisease>
                    <targetDisease>
                        <text value="Hib"/>
                    </targetDisease>
                    <doseNumberPositiveInt value="5"/>
                </protocolApplied>
            </Immunization>
        </resource>
    </entry>
    <!--    IMMUNIZATION (air-hepb-01)    -->
    <entry>
        <fullUrl value="urn:uuid:80fa6e33-0f51-4793-bc07-a934cbbe6a20"/>
        <resource>
            <Immunization>
                <id value="air-hepb-01"/>
                <!--identifier for the AIR record from AIR Medicare repository-->
                <identifier>
                    <system value="urn:ietf:rfc:3986"/>
                    <value value="urn:uuid:475db616-dfd5-43f3-b935-9f582233a38d"/>
                </identifier>
                <status value="completed"/>
                <vaccineCode>
                    <coding>
                        <system value="https://www.humanservices.gov.au/organisations/health-professionals/enablers/air-vaccine-code-formats"/>
                        <code value="ENGP"/>
                    </coding>
                    <text value="Engerix-B (paediatric)"/>
                </vaccineCode>
                <patient>
                    <reference value="urn:uuid:00a15820-c576-4706-91f2-c9ea40245650"/>
                    <identifier>
                        <type>
                            <coding>
                                <system value="http://terminology.hl7.org/CodeSystem/v2-0203"/>
                                <code value="NI"/>
                                <display value="National unique individual identifier"/>
                            </coding>
                            <text value="IHI"/>
                        </type>
                        <system value="http://ns.electronichealth.net.au/id/hi/ihi/1.0"/>
                        <value value="8003608833357361"/>
                    </identifier>
                </patient>
                <occurrenceDateTime value="1999-02-14"/>
                <primarySource value="true"/>
                <protocolApplied>
                    <targetDisease>
                        <text value="Hepatitis B"/>
                    </targetDisease>
                    <doseNumberPositiveInt value="1"/>
                </protocolApplied>
            </Immunization>
        </resource>
    </entry>
    <!--    IMMUNIZATION (air-infl-01)    -->
    <entry>
        <fullUrl value="urn:uuid:099beeb3-46db-4ad3-adc9-7b76d10747e7"/>
        <resource>
            <Immunization>
                <id value="air-infl-01"/>
                <!--identifier for the AIR record from AIR Medicare repository-->
                <identifier>
                    <system value="urn:ietf:rfc:3986"/>
                    <value value="urn:uuid:475db616-dfd5-43f3-b935-9f582233a38d" />
                </identifier>
                <status value="completed"/>
                <vaccineCode>
                    <coding>
                        <system value="https://www.humanservices.gov.au/organisations/health-professionals/enablers/air-vaccine-code-formats"/>
                        <code value="PANVAX"/>
                    </coding>
                    <text value="Panvax"/>
                </vaccineCode>
                <patient>
                    <reference value="urn:uuid:00a15820-c576-4706-91f2-c9ea40245650"/>
                    <identifier>
                        <type>
                            <coding>
                                <system value="http://terminology.hl7.org/CodeSystem/v2-0203"/>
                                <code value="NI"/>
                                <display value="National unique individual identifier"/>
                            </coding>
                            <text value="IHI"/>
                        </type>
                        <system value="http://ns.electronichealth.net.au/id/hi/ihi/1.0"/>
                        <value value="8003608833357361"/>
                    </identifier>
                </patient>
                <occurrenceDateTime value="2020-03-01"/>
                <primarySource value="true"/>
                <protocolApplied>
                    <targetDisease>
                        <text value="Influenza"/>
                    </targetDisease>
                    <doseNumberPositiveInt value="1"/>
                </protocolApplied>
            </Immunization>
        </resource>
    </entry>
    <!--    IMMUNIZATION (air-dip-02)    -->
    <entry>
        <fullUrl value="urn:uuid:2a5451b0-aa7f-4073-89c5-c2321362c5f3"/>
        <resource>
            <Immunization>
                <id value="air-infl-02"/>
                <!--identifier for the AIR record from AIR Medicare repository-->
                <identifier>
                    <system value="urn:ietf:rfc:3986"/>
                    <value value="urn:uuid:475db616-dfd5-43f3-b935-9f582233a38d" />
                </identifier>
                <status value="completed"/>
                <vaccineCode>
                    <coding>
                        <system value="https://www.humanservices.gov.au/organisations/health-professionals/enablers/air-vaccine-code-formats"/>
                        <code value="PANVAX"/>
                    </coding>
                    <text value="Panvax"/>
                </vaccineCode>
                <patient>
                    <reference value="urn:uuid:00a15820-c576-4706-91f2-c9ea40245650"/>
                    <identifier>
                        <type>
                            <coding>
                                <system value="http://terminology.hl7.org/CodeSystem/v2-0203"/>
                                <code value="NI"/>
                                <display value="National unique individual identifier"/>
                            </coding>
                            <text value="IHI"/>
                        </type>
                        <system value="http://ns.electronichealth.net.au/id/hi/ihi/1.0"/>
                        <value value="8003608833357361"/>
                    </identifier>
                </patient>
                <occurrenceDateTime value="2021-03-01"/>
                <primarySource value="true"/>
                <protocolApplied>
                    <targetDisease>
                        <text value="Influenza"/>
                    </targetDisease>
                    <doseNumberPositiveInt value="1"/>
                </protocolApplied>
            </Immunization>
        </resource>
    </entry>
    <!--    IMMUNIZATION (air-dip-03)    -->
    <entry>
        <fullUrl value="urn:uuid:e5021d46-79e6-4fc6-b06a-b56f7d1940b4"/>
        <resource>
            <Immunization>
                <id value="air-infl-03"/>
                <!--identifier for the AIR record from AIR Medicare repository-->
                <identifier>
                    <system value="urn:ietf:rfc:3986"/>
                    <value value="urn:uuid:475db616-dfd5-43f3-b935-9f582233a38d" />
                </identifier>
                <status value="completed"/>
                <vaccineCode>
                    <coding>
                        <system value="https://www.humanservices.gov.au/organisations/health-professionals/enablers/air-vaccine-code-formats"/>
                        <code value="PANVAX"/>
                    </coding>
                    <text value="Panvax"/>
                </vaccineCode>
                <patient>
                    <reference value="urn:uuid:00a15820-c576-4706-91f2-c9ea40245650"/>
                    <identifier>
                        <type>
                            <coding>
                                <system value="http://terminology.hl7.org/CodeSystem/v2-0203"/>
                                <code value="NI"/>
                                <display value="National unique individual identifier"/>
                            </coding>
                            <text value="IHI"/>
                        </type>
                        <system value="http://ns.electronichealth.net.au/id/hi/ihi/1.0"/>
                        <value value="8003608833357361"/>
                    </identifier>
                </patient>
                <occurrenceDateTime value="2022-03-01"/>
                <primarySource value="true"/>
                <protocolApplied>
                    <targetDisease>
                        <text value="Influenza"/>
                    </targetDisease>
                    <doseNumberPositiveInt value="1"/>
                </protocolApplied>
            </Immunization>
        </resource>
    </entry>
    <!--    OBSERVATION (air-covid-imm-status-01)    -->
    <entry>
        <fullUrl value="urn:uuid:c9b305d4-2eab-486e-a749-bdf01b195174"/>
        <resource>
            <Observation>
                <id value="air-covid-imm-status-01" />
                <!--identifier for the AIR record from AIR Medicare repository-->
                <identifier>
                    <system value="urn:ietf:rfc:3986"/>
                    <value value="urn:uuid:475db616-dfd5-43f3-b935-9f582233a38d"/>
                </identifier>
                <status value="final" />
                <code>
                    <coding>
                        <system value="https://healthterminologies.gov.au/fhir/CodeSystem/nctis-data-components-1" />
                        <code value="103.32029" />
                        <display value="Australian Immunisation Register COVID-19 Immunisation Status" />
                    </coding>
                    <coding>
                        <system value="http://loinc.org" />
                        <code value="97155-6" />
                        <display value="SARS coronavirus 2 (COVID-19) immunization status" />
                    </coding>
                </code>
                <subject>
                    <reference value="urn:uuid:00a15820-c576-4706-91f2-c9ea40245650"/>
                    <identifier>
                        <type>
                            <coding>
                                <system value="http://terminology.hl7.org/CodeSystem/v2-0203"/>
                                <code value="NI"/>
                                <display value="National unique individual identifier"/>
                            </coding>
                            <text value="IHI"/>
                        </type>
                        <system value="http://ns.electronichealth.net.au/id/hi/ihi/1.0"/>
                        <value value="8003608833357361"/>
                    </identifier>
                </subject>
                <effectiveDateTime value="2022-02-15T01:02:00+10:00"/>
                <performer>
                    <reference value="urn:uuid:706017d2-7c60-40e7-af9e-36c68ee80524"/>
                    <identifier>
                        <type>
                            <coding>
                                <system value="http://terminology.hl7.org.au/CodeSystem/v2-0203"/>
                                <code value="NOI"/>
                                <display value="National Organisation Identifier"/>
                            </coding>
                            <text value="PAI-O"/>
                        </type>
                        <system value="http://ns.electronichealth.net.au/id/pcehr/paio/1.0"/>
                        <value value="8003640001000036"/>
                    </identifier>
                </performer>
                <valueCodeableConcept>
                    <text value="This individual has received all required COVID-19 vaccines." />
                </valueCodeableConcept>
            </Observation>
        </resource>
    </entry>
    <!--    EXPLANATIONOFBENEFIT (mbs-02)    -->
    <entry>
        <fullUrl value="urn:uuid:33d5a96e-459f-427e-8d92-985879b01015"/>
        <resource>
            <ExplanationOfBenefit>
                <id value="mbs-02"/>
                <!--identifier for the MBR record from Medicare repository-->
                <identifier>
                    <system value="urn:ietf:rfc:3986"/>
                    <value value="urn:uuid:79a8b5a5-1631-4eec-b031-815156c9a47b" />
                </identifier>
                <status value="active"/>
                <type>
                    <coding>
                        <system value="http://terminology.hl7.org/CodeSystem/claim-type"/>
                        <code value="professional"/>
                    </coding>
                </type>
                <subType>
                    <coding>
                        <system value="https://healthterminologies.gov.au/fhir/CodeSystem/australian-benefit-payment-category-1"/>
                        <code value="mbs"/>
                    </coding>
                </subType>
                <use value="claim"/>
                <patient>
                    <reference value="urn:uuid:00a15820-c576-4706-91f2-c9ea40245650"/>
                    <identifier>
                        <type>
                            <coding>
                                <system value="http://terminology.hl7.org/CodeSystem/v2-0203"/>
                                <code value="NI"/>
                                <display value="National unique individual identifier"/>
                            </coding>
                            <text value="IHI"/>
                        </type>
                        <system value="http://ns.electronichealth.net.au/id/hi/ihi/1.0"/>
                        <value value="8003608833357361"/>
                    </identifier>
                </patient>
                <created value="2017-12-04"/>
                <insurer>
                    <display value="Australian Government Department of Health"/>
                </insurer>
                <provider>
                    <identifier>
                        <type>
                            <coding>
                                <system value="http://terminology.hl7.org/CodeSystem/v2-0203"/>
                                <code value="NPI"/>
                                <display value="National provider identifier"/>
                            </coding>
                            <text value="HPI-I"/>
                        </type>
                        <system value="http://ns.electronichealth.net.au/id/hi/hpii/1.0"/>
                        <value value="8003614900041243"/>
                    </identifier>
                    <display value="Dr. Jeong-Hoon Kim"/>
                </provider>
                <outcome value="complete"/>
                <insurance>
                    <focal value="true"/>
                    <coverage>
                        <identifier>
                            <type>
                                <coding>
                                    <system value="http://terminology.hl7.org/CodeSystem/v2-0203"/>
                                    <code value="MC"/>
                                </coding>
                                <text value="Medicare Number"/>
                            </type>
                            <system value="http://ns.electronichealth.net.au/id/medicare-number"/>
                            <value value="3951032981"/>
                        </identifier>
                    </coverage>
                </insurance>
                <item>
                    <sequence value="1"/>
                    <category>
                        <coding>
                            <system value="https://healthterminologies.gov.au/fhir/CodeSystem/australian-benefit-payment-category-1"/>
                            <code value="mbs"/>
                            <display value="MBS"/>
                        </coding>
                        <text value="Medicare Benefits Schedule"/>
                    </category>
                    <productOrService>
                        <coding>
                            <system value="urn:oid:1.2.36.1.2001.1005.21"/>
                            <code value="30185"/>
                            <display value="Palmar or plantar warts (10 or more), definitive removal of, excluding ablative methods alone, not being a service to which item 30186 or 30187 applies (Anaes.)"/>
                        </coding>
                    </productOrService>
                    <servicedDate value="2016-06-16"/>
                </item>
            </ExplanationOfBenefit>
        </resource>
    </entry>
    <!--    EXPLANATIONOFBENEFIT (mbs-03)    -->
    <entry>
        <fullUrl value="urn:uuid:3f7e9769-b04d-4345-878b-acc9d7104f93"/>
        <resource>
            <ExplanationOfBenefit>
                <id value="mbs-03"/>
                <!--identifier for the MBR record from Medicare repository-->
                <identifier>
                    <system value="urn:ietf:rfc:3986"/>
                    <value value="urn:uuid:fbaf3ef9-6e74-44d2-8057-3ceabb1f2bde" />
                </identifier>
                <status value="active"/>
                <type>
                    <coding>
                        <system value="http://terminology.hl7.org/CodeSystem/claim-type"/>
                        <code value="professional"/>
                    </coding>
                </type>
                <subType>
                    <coding>
                        <system value="https://healthterminologies.gov.au/fhir/CodeSystem/australian-benefit-payment-category-1"/>
                        <code value="mbs"/>
                    </coding>
                </subType>
                <use value="claim"/>
                <patient>
                    <reference value="urn:uuid:00a15820-c576-4706-91f2-c9ea40245650"/>
                    <identifier>
                        <type>
                            <coding>
                                <system value="http://terminology.hl7.org/CodeSystem/v2-0203"/>
                                <code value="NI"/>
                                <display value="National unique individual identifier"/>
                            </coding>
                            <text value="IHI"/>
                        </type>
                        <system value="http://ns.electronichealth.net.au/id/hi/ihi/1.0"/>
                        <value value="8003608833357361"/>
                    </identifier>
                </patient>
                <created value="2018-12-16"/>
                <insurer>
                    <display value="Australian Government Department of Health"/>
                </insurer>
                <provider>
                    <identifier>
                        <type>
                            <coding>
                                <system value="http://terminology.hl7.org/CodeSystem/v2-0203"/>
                                <code value="NPI"/>
                                <display value="National provider identifier"/>
                            </coding>
                            <text value="HPI-I"/>
                        </type>
                        <system value="http://ns.electronichealth.net.au/id/hi/hpii/1.0"/>
                        <value value="8003614900041243"/>
                    </identifier>
                    <display value="Dr. Jeong-Hoon Kim"/>
                </provider>
                <outcome value="complete"/>
                <insurance>
                    <focal value="true"/>
                    <coverage>
                        <identifier>
                            <type>
                                <coding>
                                    <system value="http://terminology.hl7.org/CodeSystem/v2-0203"/>
                                    <code value="MC"/>
                                </coding>
                                <text value="Medicare Number"/>
                            </type>
                            <system value="http://ns.electronichealth.net.au/id/medicare-number"/>
                            <value value="3951032981"/>
                        </identifier>
                    </coverage>
                </insurance>
                <item>
                    <sequence value="1"/>
                    <category>
                        <coding>
                            <system value="https://healthterminologies.gov.au/fhir/CodeSystem/australian-benefit-payment-category-1"/>
                            <code value="mbs"/>
                        </coding>
                    </category>
                    <productOrService>
                        <coding>
                            <system value="urn:oid:1.2.36.1.2001.1005.21"/>
                            <code value="30191"/>
                        </coding>
                    </productOrService>
                    <servicedDate value="2018-12-16"/>
                </item>
            </ExplanationOfBenefit>
        </resource>
    </entry>
    <!--    EXPLANATIONOFBENEFIT (pbs-01)    -->
    <entry>
        <fullUrl value="urn:uuid:b6cf6ffa-7632-488b-ab88-8eb2a1f2d3a2"/>
        <resource>
            <ExplanationOfBenefit>
                <id value="pbs-01"/>
                <contained>
                    <MedicationRequest>
                        <id value="claim-pbs-01"/>
                        <status value="unknown"/>
                        <intent value="order"/>
                        <medicationReference>
                            <reference value="#cephalexin-01"/>
                        </medicationReference>
                        <subject>
                            <reference value="urn:uuid:00a15820-c576-4706-91f2-c9ea40245650"/>
                            <identifier>
                                <type>
                                    <coding>
                                        <system value="http://terminology.hl7.org/CodeSystem/v2-0203"/>
                                        <code value="NI"/>
                                        <display value="National unique individual identifier"/>
                                    </coding>
                                    <text value="IHI"/>
                                </type>
                                <system value="http://ns.electronichealth.net.au/id/hi/ihi/1.0"/>
                                <value value="8003608833357361"/>
                            </identifier>
                        </subject>
                        <authoredOn value="2020-01-15"/>
                        <dispenseRequest>
                            <numberOfRepeatsAllowed value="1"/>
                            <quantity>
                                <value value="500"/>
                                <unit value="tablet"/>
                            </quantity>
                        </dispenseRequest>
                    </MedicationRequest>
                </contained>
                <contained>
                    <Medication>
                        <id value="cephalexin-01"/>
                        <code>
                            <coding>
                                <system value="urn:oid:1.2.36.1.2001.1005.22"/>
                                <code value="03119E"/>
                                <display value="cephalexin 500 mg capsule, 20"/>
                            </coding>
                        </code>
                        <manufacturer>
                            <identifier>
                                <system value="http://pbs.gov.au/code/manufacturer"/>
                                <value value="MM"/>
                            </identifier>
                        </manufacturer>
                    </Medication>
                </contained>
                <!--identifier for the PBR record from Medicare repository-->
                <identifier>
                    <system value="urn:ietf:rfc:3986"/>
                    <value value="urn:uuid:296dcbd7-d763-4ecf-aa78-523bcc11ecda" />
                </identifier>
                <status value="active"/>
                <type>
                    <coding>
                        <system value="http://terminology.hl7.org/CodeSystem/claim-type"/>
                        <code value="pharmacy"/>
                    </coding>
                </type>
                <subType>
                    <coding>
                        <system
                            value="https://healthterminologies.gov.au/fhir/CodeSystem/australian-benefit-payment-category-1"/>
                        <code value="pbs"/>
                    </coding>
                </subType>
                <use value="claim"/>
                <patient>
                    <reference value="urn:uuid:00a15820-c576-4706-91f2-c9ea40245650"/>
                    <identifier>
                        <type>
                            <coding>
                                <system value="http://terminology.hl7.org/CodeSystem/v2-0203"/>
                                <code value="NI"/>
                                <display value="National unique individual identifier"/>
                            </coding>
                            <text value="IHI"/>
                        </type>
                        <system value="http://ns.electronichealth.net.au/id/hi/ihi/1.0"/>
                        <value value="8003608833357361"/>
                    </identifier>
                </patient>
                <created value="2020-01-16"/>
                <insurer>
                    <display value="Australian Government Department of Health"/>
                </insurer>
                <provider>
                    <identifier>
                        <type>
                            <coding>
                                <system value="http://terminology.hl7.org/CodeSystem/v2-0203"/>
                                <code value="NPI"/>
                                <display value="National provider identifier"/>
                            </coding>
                            <text value="HPI-I"/>
                        </type>
                        <system value="http://ns.electronichealth.net.au/id/hi/hpii/1.0"/>
                        <value value="8003611566708354"/>
                    </identifier>
                    <display value="Mr. Representative Pharmacist at Test Org -DigitalHealth 6 Pharmacy"/>
                </provider>
                <prescription>
                    <reference value="#claim-pbs-01"/>
                </prescription>
                <outcome value="complete"/>
                <insurance>
                    <focal value="true"/>
                    <coverage>
                        <identifier>
                            <type>
                                <coding>
                                    <system value="http://terminology.hl7.org/CodeSystem/v2-0203"/>
                                    <code value="MC"/>
                                </coding>
                                <text value="Medicare Number"/>
                            </type>
                            <system value="http://ns.electronichealth.net.au/id/medicare-number"/>
                            <value value="3951032981"/>
                        </identifier>
                    </coverage>
                </insurance>
                <item>
                    <sequence value="1"/>
                    <category>
                        <coding>
                            <system
                                value="https://healthterminologies.gov.au/fhir/CodeSystem/australian-benefit-payment-category-1"/>
                            <code value="pbs"/>
                            <display value="PBS"/>
                        </coding>
                    </category>
                    <productOrService>
                        <coding>
                            <system value="urn:oid:1.2.36.1.2001.1005.22"/>
                            <code value="03119E"/>
                            <display value="cephalexin 500 mg capsule, 20"/>
                        </coding>
                    </productOrService>
                    <servicedDate value="2020-01-16"/>
                </item>
            </ExplanationOfBenefit>
        </resource>
    </entry>
    <!--    EXPLANATIONOFBENEFIT (pbs-02)    -->
    <entry>
        <fullUrl value="urn:uuid:ae55f270-8e93-4e87-a9e2-be259c3b6383"/>
        <resource>
            <ExplanationOfBenefit>
                <id value="pbs-02"/>
                <contained>
                    <MedicationRequest>
                        <id value="claim-pbs-02"/>
                        <status value="unknown"/>
                        <intent value="order"/>
                        <medicationReference>
                            <reference value="#cephalexin-01"/>
                        </medicationReference>
                        <subject>
                            <reference value="urn:uuid:00a15820-c576-4706-91f2-c9ea40245650"/>
                            <identifier>
                                <type>
                                    <coding>
                                        <system value="http://terminology.hl7.org/CodeSystem/v2-0203"/>
                                        <code value="NI"/>
                                        <display value="National unique individual identifier"/>
                                    </coding>
                                    <text value="IHI"/>
                                </type>
                                <system value="http://ns.electronichealth.net.au/id/hi/ihi/1.0"/>
                                <value value="8003608833357361"/>
                            </identifier>
                        </subject>
                        <authoredOn value="2020-01-15"/>
                        <dispenseRequest>
                            <numberOfRepeatsAllowed value="1"/>
                            <quantity>
                                <value value="500"/>
                                <unit value="tablet"/>
                            </quantity>
                        </dispenseRequest>
                    </MedicationRequest>
                </contained>
                <contained>
                    <Medication>
                        <id value="cephalexin-01"/>
                        <code>
                            <coding>
                                <system value="urn:oid:1.2.36.1.2001.1005.22"/>
                                <code value="03119E"/>
                                <display value="cephalexin 500 mg capsule, 20"/>
                            </coding>
                        </code>
                        <manufacturer>
                            <identifier>
                                <system value="http://pbs.gov.au/code/manufacturer"/>
                                <value value="MM"/>
                            </identifier>
                        </manufacturer>
                    </Medication>
                </contained>
                <!--identifier for the PBR record from Medicare repository-->
                <identifier>
                    <system value="urn:ietf:rfc:3986"/>
                    <value value="urn:uuid:73f7a30b-add3-4673-a4e9-65b0d8670a36" />
                </identifier>
                <status value="active"/>
                <type>
                    <coding>
                        <system value="http://terminology.hl7.org/CodeSystem/claim-type"/>
                        <code value="pharmacy"/>
                    </coding>
                </type>
                <subType>
                    <coding>
                        <system
                            value="https://healthterminologies.gov.au/fhir/CodeSystem/australian-benefit-payment-category-1"/>
                        <code value="pbs"/>
                    </coding>
                </subType>
                <use value="claim"/>
                <patient>
                    <reference value="urn:uuid:00a15820-c576-4706-91f2-c9ea40245650"/>
                    <identifier>
                        <type>
                            <coding>
                                <system value="http://terminology.hl7.org/CodeSystem/v2-0203"/>
                                <code value="NI"/>
                                <display value="National unique individual identifier"/>
                            </coding>
                            <text value="IHI"/>
                        </type>
                        <system value="http://ns.electronichealth.net.au/id/hi/ihi/1.0"/>
                        <value value="8003608833357361"/>
                    </identifier>
                </patient>
                <created value="2020-02-16"/>
                <insurer>
                    <display value="Australian Government Department of Health"/>
                </insurer>
                <provider>
                    <identifier>
                        <type>
                            <coding>
                                <system value="http://terminology.hl7.org/CodeSystem/v2-0203"/>
                                <code value="NPI"/>
                                <display value="National provider identifier"/>
                            </coding>
                            <text value="HPI-I"/>
                        </type>
                        <system value="http://ns.electronichealth.net.au/id/hi/hpii/1.0"/>
                        <value value="8003611566708354"/>
                    </identifier>
                    <display value="Mr. Representative Pharmacist at Test Org -DigitalHealth 6 Pharmacy"/>
                </provider>
                <prescription>
                    <reference value="#claim-pbs-02"/>
                </prescription>
                <outcome value="complete"/>
                <insurance>
                    <focal value="true"/>
                    <coverage>
                        <identifier>
                            <type>
                                <coding>
                                    <system value="http://terminology.hl7.org/CodeSystem/v2-0203"/>
                                    <code value="MC"/>
                                </coding>
                                <text value="Medicare Number"/>
                            </type>
                            <system value="http://ns.electronichealth.net.au/id/medicare-number"/>
                            <value value="3951032981"/>
                        </identifier>
                    </coverage>
                </insurance>
                <item>
                    <sequence value="1"/>
                    <category>
                        <coding>
                            <system
                                value="https://healthterminologies.gov.au/fhir/CodeSystem/australian-benefit-payment-category-1"/>
                            <code value="pbs"/>
                            <display value="PBS"/>
                        </coding>
                    </category>
                    <productOrService>
                        <coding>
                            <system value="urn:oid:1.2.36.1.2001.1005.22"/>
                            <code value="03119E"/>
                            <display value="cephalexin 500 mg capsule, 20"/>
                        </coding>
                    </productOrService>
                    <servicedDate value="2020-02-16"/>
                </item>
            </ExplanationOfBenefit>
        </resource>
    </entry>
</Bundle>
