<?xml version="1.0" encoding="UTF-8"?>
<Bundle xmlns="http://hl7.org/fhir">
    <id value="dr-optic-01"/>
    <meta>
        <lastUpdated value="2021-03-17T11:45:00+11:00"/>
    </meta>
    <type value="collection"/>
    <entry>
        <fullUrl value="urn:uuid:9216a8fb-8df0-4f03-8284-e350011316b7"/>
        <resource>
            <DiagnosticReport>
                <id value="9216a8fb-8df0-4f03-8284-e350011316b7"/>
                <meta>
                    <profile value="http://ns.electronichealth.net.au/fhir/StructureDefinition/diagnosticreport-otherdiag-atomic-1"/>
                </meta>
                <language value="en-AU"/>
                <identifier>
                    <type>
                        <coding>
                            <system value="http://terminology.hl7.org.au/CodeSystem/v2-0203"/>
                            <code value="LRI"/>
                        </coding>
                    </type>
                    <system
                        value="http://ns.electronichealth.net.au/id/hpio-scoped/report/1.0/8003629900033370"/>
                    <value value="MA500820"/>
                    <assigner>
                        <display value="Eye Test Clinic"/>
                    </assigner>
                </identifier>
                <status value="final"/>
                <category>
                    <coding>
                        <system value="http://terminology.hl7.org/CodeSystem/v2-0074"/>
                        <code value="OTH"/>
                    </coding>
                    <text value="Tomographic imaging"/>
                </category>
                <code>
                    <coding>
                        <system value="http://snomed.info/sct"/>
                        <code value="392010000"/>
                        <display value="Optical coherence tomography"/>
                    </coding>
                    <text value="Macular OCT"/>
                </code>
                <subject>
                    <reference value="urn:uuid:93839ad8-7679-4103-a9cc-4941035a3235"/>
                </subject>
                <effectiveDateTime value="2021-03-16T10:40:00+11:00"/>
                <issued value="2021-03-17T11:45:00+11:00"/>
                <performer>
                    <reference value="urn:uuid:7881fd3d-fc94-4701-96fa-489737057598"/>
                </performer>
                <performer>
                    <reference value="urn:uuid:671b6f87-66f3-4cce-a51e-3311eecbe4fc"/>
                </performer>
                <result>
                    <reference value="urn:uuid:42fa3da0-36bb-49a8-bc00-cb31c9754d40"/>
                </result>
                <conclusion value="Normal macula presentation in both eyes."/>
                <presentedForm>
                    <contentType value="application/pdf"/>
                    <url value="Binary/deb303ac-59b1-4dab-9dcf-9e3115fef583"/>
                    <hash value="d6a39d7b070180c6b6d6d8b375ec0ab302e674f5"/>
                    <title value="OCT Macular"/>
                </presentedForm>
            </DiagnosticReport>
        </resource>
    </entry>
    <!--Ophthalmic OCT panel-->
    <entry>
        <fullUrl value="urn:uuid:42fa3da0-36bb-49a8-bc00-cb31c9754d40"/>
        <resource>
            <Observation>
                <id value="42fa3da0-36bb-49a8-bc00-cb31c9754d40"/>
                <status value="final"/>
                <category>
                    <coding>
                        <system value="http://terminology.hl7.org/CodeSystem/observation-category"/>
                        <code value="imaging"/>
                        <display value="Imaging"/>
                    </coding>
                </category>
                <code>
                    <coding>
                        <system value="http://snomed.info/sct"/>
                        <code value="392010000"/>
                        <display value="Optical coherence tomography"/>
                    </coding>
                    <text value="Macular OCT"/>
                </code>
                <subject>
                    <reference value="urn:uuid:93839ad8-7679-4103-a9cc-4941035a3235"/>
                </subject>
                <effectiveDateTime value="2021-03-16T10:40:00+11:00"/>
                <hasMember>
                    <reference value="urn:uuid:274f3cc7-9141-4dbe-a117-05d0ed3549f6"/>
                </hasMember>
                <hasMember>
                    <reference value="urn:uuid:8c480ec0-68b0-40dd-8584-0a40f49a21fc"/>
                </hasMember>
                <hasMember>
                    <reference value="urn:uuid:3bd3677c-c5d4-4737-83ec-6bc7aa046a4f"/>
                </hasMember>
                <hasMember>
                    <reference value="urn:uuid:218766bf-c00e-48ec-be37-636614272ae1"/>
                </hasMember>
                <hasMember>
                    <reference value="urn:uuid:ec390eec-4dc0-4c21-88e1-b48b8a35f424"/>
                </hasMember>
                <hasMember>
                    <reference value="urn:uuid:fa9c580a-6293-413c-b248-410b629327d7"/>
                </hasMember>
                <hasMember>
                    <reference value="urn:uuid:c172dc83-47f9-40ba-87e2-c45cc2130581"/>
                </hasMember>
                <hasMember>
                    <reference value="urn:uuid:5a63d2d4-0e4d-4fca-858f-8d7543ea4a4a"/>
                </hasMember>
                <hasMember>
                    <reference value="urn:uuid:fe54c4d2-5a81-4170-bfd2-659aa65d236e"/>
                </hasMember>
                <hasMember>
                    <reference value="urn:uuid:685e9944-79e0-4ea1-af9e-c9046ca1eb1a"/>
                </hasMember>
                <hasMember>
                    <reference value="urn:uuid:093bc0ff-8313-4d81-9d3f-afad9efa791a"/>
                </hasMember>
                <hasMember>
                    <reference value="urn:uuid:3d328f5f-0e76-4c3a-896b-d0148013aec4"/>
                </hasMember>
                <hasMember>
                    <reference value="urn:uuid:a1f055ba-e4d5-49f2-9e27-bb963ec8d8ab"/>
                </hasMember>
                <hasMember>
                    <reference value="urn:uuid:48536353-e1b0-480b-935f-4c69641380f0"/>
                </hasMember>
                <hasMember>
                    <reference value="urn:uuid:6a5f90ca-b8d9-4d8a-934f-5aa826a20999"/>
                </hasMember>
                <hasMember>
                    <reference value="urn:uuid:06a86cba-48d5-4c94-be62-47c1f1a4d8ac"/>
                </hasMember>
                <hasMember>
                    <reference value="urn:uuid:f5e707b9-02c9-448f-aa29-a2ce92ea5f2e"/>
                </hasMember>
                <hasMember>
                    <reference value="urn:uuid:1c5eb2ea-9c0f-45e6-9651-ffad52a5e4c8"/>
                </hasMember>
                <hasMember>
                    <reference value="urn:uuid:4b05e958-b6b2-4854-9a6c-b39068b58042"/>
                </hasMember>
                <hasMember>
                    <reference value="urn:uuid:057a1691-0f6e-40c3-accf-8d8bc8481b00"/>
                </hasMember>
                <hasMember>
                    <reference value="urn:uuid:d0dd9638-2e97-4a68-b4b0-b63b29e43f08"/>
                </hasMember>
            </Observation>
        </resource>
    </entry>
    <!-- Macular grid.center point thickness by OCT - left-->
    <entry>
        <fullUrl value="urn:uuid:274f3cc7-9141-4dbe-a117-05d0ed3549f6"/>
        <resource>
            <Observation>
                <id value="274f3cc7-9141-4dbe-a117-05d0ed3549f6"/>
                                <extension url="http://hl7.org/fhir/StructureDefinition/bodySite">
                    <valueReference>
                        <reference value="urn:uuid:8608c337-95aa-46bb-a0db-a08c314f315b"/>
                    </valueReference>
                </extension>
                <status value="final"/>
                <category>
                    <coding>
                        <system value="http://terminology.hl7.org/CodeSystem/observation-category"/>
                        <code value="imaging"/>
                        <display value="Imaging"/>
                    </coding>
                </category>
                <code>
                    <coding>
                        <system value="http://loinc.org"/>
                        <code value="57108-3"/>
                        <display value="Macular grid.center point thickness by OCT"/>
                    </coding>
                </code>
                <subject>
                    <reference value="urn:uuid:93839ad8-7679-4103-a9cc-4941035a3235"/>
                </subject>
                <effectiveDateTime value="2021-03-16T10:40:00+11:00"/>
                <valueQuantity>
                    <value value="231"/>
                    <unit value="μm"/>
                    <system value="http://unitsofmeasure.org"/>
                    <code value="um"/>
                </valueQuantity>
            </Observation>
        </resource>
    </entry>
    <!-- Macular grid.center subfield thickness by OCT - left-->
    <entry>
        <fullUrl value="urn:uuid:8c480ec0-68b0-40dd-8584-0a40f49a21fc"/>
        <resource>
            <Observation>
                <id value="8c480ec0-68b0-40dd-8584-0a40f49a21fc"/>
                <extension url="http://hl7.org/fhir/StructureDefinition/bodySite">
                    <valueReference>
                        <reference value="urn:uuid:8608c337-95aa-46bb-a0db-a08c314f315b"/>
                    </valueReference>
                </extension>
                <status value="final"/>
                <category>
                    <coding>
                        <system value="http://terminology.hl7.org/CodeSystem/observation-category"/>
                        <code value="imaging"/>
                        <display value="Imaging"/>
                    </coding>
                </category>
                <code>
                    <coding>
                        <system value="http://loinc.org"/>
                        <code value="57109-1"/>
                        <display value="Macular grid.center subfield thickness by OCT"/>
                    </coding>
                </code>
                <subject>
                    <reference value="urn:uuid:93839ad8-7679-4103-a9cc-4941035a3235"/>
                </subject>
                <effectiveDateTime value="2021-03-16T10:40:00+11:00"/>
                <valueQuantity>
                    <value value="272"/>
                    <unit value="μm"/>
                    <system value="http://unitsofmeasure.org"/>
                    <code value="um"/>
                </valueQuantity>
            </Observation>
        </resource>
    </entry>
    <!--    Macular grid.inner superios subfield thickness by OCT - left-->
    <entry>
        <fullUrl value="urn:uuid:3bd3677c-c5d4-4737-83ec-6bc7aa046a4f"/>
        <resource>
            <Observation>
                <id value="3bd3677c-c5d4-4737-83ec-6bc7aa046a4f"/>
                <extension url="http://hl7.org/fhir/StructureDefinition/bodySite">
                    <valueReference>
                        <reference value="urn:uuid:8608c337-95aa-46bb-a0db-a08c314f315b"/>
                    </valueReference>
                </extension>
                <status value="final"/>
                <category>
                    <coding>
                        <system value="http://terminology.hl7.org/CodeSystem/observation-category"/>
                        <code value="imaging"/>
                        <display value="Imaging"/>
                    </coding>
                </category>
                <code>
                    <coding>
                        <system value="http://loinc.org"/>
                        <code value="57110-9"/>
                        <display value="Macular grid.inner superios subfield thickness by OCT"/>
                    </coding>
                </code>
                <subject>
                    <reference value="urn:uuid:93839ad8-7679-4103-a9cc-4941035a3235"/>
                </subject>
                <effectiveDateTime value="2021-03-16T10:40:00+11:00"/>
                <valueQuantity>
                    <value value="344"/>
                    <unit value="μm"/>
                    <system value="http://unitsofmeasure.org"/>
                    <code value="um"/>
                </valueQuantity>
            </Observation>
        </resource>
    </entry>
    <!-- Macular grid.inner nasal subfield thickness by OCT - left -->
    <entry>
        <fullUrl value="urn:uuid:218766bf-c00e-48ec-be37-636614272ae1"/>
        <resource>
            <Observation>
                <id value="218766bf-c00e-48ec-be37-636614272ae1"/>
                <extension url="http://hl7.org/fhir/StructureDefinition/bodySite">
                    <valueReference>
                        <reference value="urn:uuid:8608c337-95aa-46bb-a0db-a08c314f315b"/>
                    </valueReference>
                </extension>
                <status value="final"/>
                <category>
                    <coding>
                        <system value="http://terminology.hl7.org/CodeSystem/observation-category"/>
                        <code value="imaging"/>
                        <display value="Imaging"/>
                    </coding>
                </category>
                <code>
                    <coding>
                        <system value="http://loinc.org"/>
                        <code value="57111-7"/>
                        <display value="Macular grid.inner nasal subfield thickness by OCT"/>
                    </coding>
                </code>
                <subject>
                    <reference value="urn:uuid:93839ad8-7679-4103-a9cc-4941035a3235"/>
                </subject>
                <effectiveDateTime value="2021-03-16T10:40:00+11:00"/>
                <valueQuantity>
                    <value value="341"/>
                    <unit value="μm"/>
                    <system value="http://unitsofmeasure.org"/>
                    <code value="um"/>
                </valueQuantity>
            </Observation>
        </resource>
    </entry>
    <!-- Macular grid.inner inferior subfield thickness by OCT-->
    <entry>
        <fullUrl value="urn:uuid:ec390eec-4dc0-4c21-88e1-b48b8a35f424"/>
        <resource>
            <Observation>
                <id value="ec390eec-4dc0-4c21-88e1-b48b8a35f424"/>
                <extension url="http://hl7.org/fhir/StructureDefinition/bodySite">
                    <valueReference>
                        <reference value="urn:uuid:8608c337-95aa-46bb-a0db-a08c314f315b"/>
                    </valueReference>
                </extension>
                <status value="final"/>
                <category>
                    <coding>
                        <system value="http://terminology.hl7.org/CodeSystem/observation-category"/>
                        <code value="imaging"/>
                        <display value="Imaging"/>
                    </coding>
                </category>
                <code>
                    <coding>
                        <system value="http://loinc.org"/>
                        <code value="57112-5"/>
                        <display value="Macular grid.inner inferior subfield thickness by OCT"/>
                    </coding>
                </code>
                <subject>
                    <reference value="urn:uuid:93839ad8-7679-4103-a9cc-4941035a3235"/>
                </subject>
                <effectiveDateTime value="2021-03-16T10:40:00+11:00"/>
                <valueQuantity>
                    <value value="333"/>
                    <unit value="μm"/>
                    <system value="http://unitsofmeasure.org"/>
                    <code value="um"/>
                </valueQuantity>
            </Observation>
        </resource>
    </entry>
    <!--Macular grid.inner temporal subfield thickness by OCT-->
    <entry>
        <fullUrl value="urn:uuid:fa9c580a-6293-413c-b248-410b629327d7"/>
        <resource>
            <Observation>
                <id value="fa9c580a-6293-413c-b248-410b629327d7"/>
                <extension url="http://hl7.org/fhir/StructureDefinition/bodySite">
                    <valueReference>
                        <reference value="urn:uuid:8608c337-95aa-46bb-a0db-a08c314f315b"/>
                    </valueReference>
                </extension>
                <status value="final"/>
                <category>
                    <coding>
                        <system value="http://terminology.hl7.org/CodeSystem/observation-category"/>
                        <code value="imaging"/>
                        <display value="Imaging"/>
                    </coding>
                </category>
                <code>
                    <coding>
                        <system value="http://loinc.org"/>
                        <code value="57113-3"/>
                        <display value="Macular grid.inner temporal subfield thickness by OCT"/>
                    </coding>
                </code>
                <subject>
                    <reference value="urn:uuid:93839ad8-7679-4103-a9cc-4941035a3235"/>
                </subject>
                <effectiveDateTime value="2021-03-16T10:40:00+11:00"/>
                <valueQuantity>
                    <value value="322"/>
                    <unit value="μm"/>
                    <system value="http://unitsofmeasure.org"/>
                    <code value="um"/>
                </valueQuantity>
            </Observation>
        </resource>
    </entry>
    <!--   Macular grid.outer superior subfield thickness by OCT-->
    <entry>
        <fullUrl value="urn:uuid:c172dc83-47f9-40ba-87e2-c45cc2130581"/>
        <resource>
            <Observation>
                <id value="c172dc83-47f9-40ba-87e2-c45cc2130581"/>
                <extension url="http://hl7.org/fhir/StructureDefinition/bodySite">
                    <valueReference>
                        <reference value="urn:uuid:8608c337-95aa-46bb-a0db-a08c314f315b"/>
                    </valueReference>
                </extension>
                <status value="final"/>
                <category>
                    <coding>
                        <system value="http://terminology.hl7.org/CodeSystem/observation-category"/>
                        <code value="imaging"/>
                        <display value="Imaging"/>
                    </coding>
                </category>
                <code>
                    <coding>
                        <system value="http://loinc.org"/>
                        <code value="57114-1"/>
                        <display value="Macular grid.outer superior subfield thickness by OCT"/>
                    </coding>
                </code>
                <subject>
                    <reference value="urn:uuid:93839ad8-7679-4103-a9cc-4941035a3235"/>
                </subject>
                <effectiveDateTime value="2021-03-16T10:40:00+11:00"/>
                <valueQuantity>
                    <value value="304"/>
                    <unit value="μm"/>
                    <system value="http://unitsofmeasure.org"/>
                    <code value="um"/>
                </valueQuantity>
            </Observation>
        </resource>
    </entry>
    <!--  Macular grid.outer nasal subfield thickness by OCT-->
    <entry>
        <fullUrl value="urn:uuid:5a63d2d4-0e4d-4fca-858f-8d7543ea4a4a"/>
        <resource>
            <Observation>
                <id value="5a63d2d4-0e4d-4fca-858f-8d7543ea4a4a"/>
                <extension url="http://hl7.org/fhir/StructureDefinition/bodySite">
                    <valueReference>
                        <reference value="urn:uuid:8608c337-95aa-46bb-a0db-a08c314f315b"/>
                    </valueReference>
                </extension>
                <status value="final"/>
                <category>
                    <coding>
                        <system value="http://terminology.hl7.org/CodeSystem/observation-category"/>
                        <code value="imaging"/>
                        <display value="Imaging"/>
                    </coding>
                </category>
                <code>
                    <coding>
                        <system value="http://loinc.org"/>
                        <code value="57115-8"/>
                        <display value="Macular grid.outer nasal subfield thickness by OCT"/>
                    </coding>
                </code>
                <subject>
                    <reference value="urn:uuid:93839ad8-7679-4103-a9cc-4941035a3235"/>
                </subject>
                <effectiveDateTime value="2021-03-16T10:40:00+11:00"/>
                <valueQuantity>
                    <value value="326"/>
                    <unit value="μm"/>
                    <system value="http://unitsofmeasure.org"/>
                    <code value="um"/>
                </valueQuantity>
            </Observation>
        </resource>
    </entry>
    <!-- Macular grid.outer inferior subfield thickness by OCT-->
    <entry>
        <fullUrl value="urn:uuid:fe54c4d2-5a81-4170-bfd2-659aa65d236e"/>
        <resource>
            <Observation>
                <id value="fe54c4d2-5a81-4170-bfd2-659aa65d236e"/>
                <extension url="http://hl7.org/fhir/StructureDefinition/bodySite">
                    <valueReference>
                        <reference value="urn:uuid:8608c337-95aa-46bb-a0db-a08c314f315b"/>
                    </valueReference>
                </extension>
                <status value="final"/>
                <category>
                    <coding>
                        <system value="http://terminology.hl7.org/CodeSystem/observation-category"/>
                        <code value="imaging"/>
                        <display value="Imaging"/>
                    </coding>
                </category>
                <code>
                    <coding>
                        <system value="http://loinc.org"/>
                        <code value="57116-6"/>
                        <display value="Macular grid.outer inferior subfield thickness by OCT"/>
                    </coding>
                </code>
                <subject>
                    <reference value="urn:uuid:93839ad8-7679-4103-a9cc-4941035a3235"/>
                </subject>
                <effectiveDateTime value="2021-03-16T10:40:00+11:00"/>
                <valueQuantity>
                    <value value="294"/>
                    <unit value="μm"/>
                    <system value="http://unitsofmeasure.org"/>
                    <code value="um"/>
                </valueQuantity>
            </Observation>
        </resource>
    </entry>
    <!-- Macular grid.outer temporal subfield thickness by OCT-->
    <entry>
        <fullUrl value="urn:uuid:685e9944-79e0-4ea1-af9e-c9046ca1eb1a"/>
        <resource>
            <Observation>
                <id value="685e9944-79e0-4ea1-af9e-c9046ca1eb1a"/>
                <extension url="http://hl7.org/fhir/StructureDefinition/bodySite">
                    <valueReference>
                        <reference value="urn:uuid:8608c337-95aa-46bb-a0db-a08c314f315b"/>
                    </valueReference>
                </extension>
                <status value="final"/>
                <category>
                    <coding>
                        <system value="http://terminology.hl7.org/CodeSystem/observation-category"/>
                        <code value="imaging"/>
                        <display value="Imaging"/>
                    </coding>
                </category>
                <code>
                    <coding>
                        <system value="http://loinc.org"/>
                        <code value="57117-4"/>
                        <display value="Macular grid.outer temporal subfield thickness by OCT"/>
                    </coding>
                </code>
                <subject>
                    <reference value="urn:uuid:93839ad8-7679-4103-a9cc-4941035a3235"/>
                </subject>
                <effectiveDateTime value="2021-03-16T10:40:00+11:00"/>
                <valueQuantity>
                    <value value="283"/>
                    <unit value="μm"/>
                    <system value="http://unitsofmeasure.org"/>
                    <code value="um"/>
                </valueQuantity>
            </Observation>
        </resource>
    </entry>
    <!-- Macular grid.total volume by OCT-->
    <entry>
        <fullUrl value="urn:uuid:093bc0ff-8313-4d81-9d3f-afad9efa791a"/>
        <resource>
            <Observation>
                <id value="093bc0ff-8313-4d81-9d3f-afad9efa791a"/>
                <extension url="http://hl7.org/fhir/StructureDefinition/bodySite">
                    <valueReference>
                        <reference value="urn:uuid:8608c337-95aa-46bb-a0db-a08c314f315b"/>
                    </valueReference>
                </extension>
                <status value="final"/>
                <category>
                    <coding>
                        <system value="http://terminology.hl7.org/CodeSystem/observation-category"/>
                        <code value="exam"/>
                        <display value="Exam"/>
                    </coding>
                </category>
                <code>
                    <coding>
                        <system value="http://loinc.org"/>
                        <code value="57118-2"/>
                        <display value="Macular grid.total volume by OCT"/>
                    </coding>
                </code>
                <subject>
                    <reference value="urn:uuid:93839ad8-7679-4103-a9cc-4941035a3235"/>
                </subject>
                <effectiveDateTime value="2021-03-16T10:40:00+11:00"/>
                <valueQuantity>
                    <value value="8.71"/>
                    <unit value="mm3"/>
                    <system value="http://unitsofmeasure.org"/>
                    <code value="mm3"/>
                </valueQuantity>
            </Observation>
        </resource>
    </entry>
    <!--   Macular grid.center point thickness by OCT - right-->
    <entry>
        <fullUrl value="urn:uuid:3d328f5f-0e76-4c3a-896b-d0148013aec4"/>
        <resource>
            <Observation>
                <id value="3d328f5f-0e76-4c3a-896b-d0148013aec4"/>
                <extension url="http://hl7.org/fhir/StructureDefinition/bodySite">
                    <valueReference>
                        <reference value="urn:uuid:6911411e-d529-4d12-9c45-3a8c65ecd23b"/>
                    </valueReference>
                </extension>
                <status value="final"/>
                <category>
                    <coding>
                        <system value="http://terminology.hl7.org/CodeSystem/observation-category"/>
                        <code value="imaging"/>
                        <display value="Imaging"/>
                    </coding>
                </category>
                <code>
                    <coding>
                        <system value="http://loinc.org"/>
                        <code value="57108-3"/>
                        <display value="Macular grid.center point thickness by OCT"/>
                    </coding>
                </code>
                <subject>
                    <reference value="urn:uuid:93839ad8-7679-4103-a9cc-4941035a3235"/>
                </subject>
                <effectiveDateTime value="2021-03-16T10:40:00+11:00"/>
                <valueQuantity>
                    <value value="226"/>
                    <unit value="μm"/>
                    <system value="http://unitsofmeasure.org"/>
                    <code value="um"/>
                </valueQuantity>
            </Observation>
        </resource>
    </entry>
    <!--Macular grid.center subfield thickness by OCT - right-->
    <entry>
        <fullUrl value="urn:uuid:a1f055ba-e4d5-49f2-9e27-bb963ec8d8ab"/>
        <resource>
            <Observation>
                <id value="a1f055ba-e4d5-49f2-9e27-bb963ec8d8ab"/>
                <extension url="http://hl7.org/fhir/StructureDefinition/bodySite">
                    <valueReference>
                        <reference value="urn:uuid:6911411e-d529-4d12-9c45-3a8c65ecd23b"/>
                    </valueReference>
                </extension>
                <status value="final"/>
                <category>
                    <coding>
                        <system value="http://terminology.hl7.org/CodeSystem/observation-category"/>
                        <code value="imaging"/>
                        <display value="Imaging"/>
                    </coding>
                </category>
                <code>
                    <coding>
                        <system value="http://loinc.org"/>
                        <code value="57109-1"/>
                        <display value="Macular grid.center subfield thickness by OCT"/>
                    </coding>
                </code>
                <subject>
                    <reference value="urn:uuid:93839ad8-7679-4103-a9cc-4941035a3235"/>
                </subject>
                <effectiveDateTime value="2021-03-16T10:40:00+11:00"/>
                <valueQuantity>
                    <value value="270"/>
                    <unit value="μm"/>
                    <system value="http://unitsofmeasure.org"/>
                    <code value="um"/>
                </valueQuantity>
            </Observation>
        </resource>
    </entry>
    <!--Macular grid.inner superior subfield thickness by OCT - right-->
    <entry>
        <fullUrl value="urn:uuid:48536353-e1b0-480b-935f-4c69641380f0"/>
        <resource>
            <Observation>
                <id value="48536353-e1b0-480b-935f-4c69641380f0"/>
                <extension url="http://hl7.org/fhir/StructureDefinition/bodySite">
                    <valueReference>
                        <reference value="urn:uuid:6911411e-d529-4d12-9c45-3a8c65ecd23b"/>
                    </valueReference>
                </extension>
                <status value="final"/>
                <category>
                    <coding>
                        <system value="http://terminology.hl7.org/CodeSystem/observation-category"/>
                        <code value="imaging"/>
                        <display value="Imaging"/>
                    </coding>
                </category>
                <code>
                    <coding>
                        <system value="http://loinc.org"/>
                        <code value="57110-9"/>
                        <display value="Macular grid.inner superior subfield thickness by OCT"/>
                    </coding>
                </code>
                <subject>
                    <reference value="urn:uuid:93839ad8-7679-4103-a9cc-4941035a3235"/>
                </subject>
                <effectiveDateTime value="2021-03-16T10:40:00+11:00"/>
                <valueQuantity>
                    <value value="338"/>
                    <unit value="μm"/>
                    <system value="http://unitsofmeasure.org"/>
                    <code value="um"/>
                </valueQuantity>
            </Observation>
        </resource>
    </entry>
    <!-- Macular grid.inner nasal subfield thickness by OCT - right -->
    <entry>
        <fullUrl value="urn:uuid:6a5f90ca-b8d9-4d8a-934f-5aa826a20999"/>
        <resource>
            <Observation>
                <id value="6a5f90ca-b8d9-4d8a-934f-5aa826a20999"/>
                <extension url="http://hl7.org/fhir/StructureDefinition/bodySite">
                    <valueReference>
                        <reference value="urn:uuid:6911411e-d529-4d12-9c45-3a8c65ecd23b"/>
                    </valueReference>
                </extension>
                <status value="final"/>
                <category>
                    <coding>
                        <system value="http://terminology.hl7.org/CodeSystem/observation-category"/>
                        <code value="imaging"/>
                        <display value="Imaging"/>
                    </coding>
                </category>
                <code>
                    <coding>
                        <system value="http://loinc.org"/>
                        <code value="57111-7"/>
                        <display value="Macular grid.inner nasal subfield thickness by OCT"/>
                    </coding>
                </code>
                <subject>
                    <reference value="urn:uuid:93839ad8-7679-4103-a9cc-4941035a3235"/>
                </subject>
                <effectiveDateTime value="2021-03-16T10:40:00+11:00"/>
                <valueQuantity>
                    <value value="338"/>
                    <unit value="μm"/>
                    <system value="http://unitsofmeasure.org"/>
                    <code value="um"/>
                </valueQuantity>
            </Observation>
        </resource>
    </entry>
    <!--  Macular grid.inner inferior subfield thickness by OCT - right -->
    <entry>
        <fullUrl value="urn:uuid:06a86cba-48d5-4c94-be62-47c1f1a4d8ac"/>
        <resource>
            <Observation>
                <id value="06a86cba-48d5-4c94-be62-47c1f1a4d8ac"/>
                <extension url="http://hl7.org/fhir/StructureDefinition/bodySite">
                    <valueReference>
                        <reference value="urn:uuid:6911411e-d529-4d12-9c45-3a8c65ecd23b"/>
                    </valueReference>
                </extension>
                <status value="final"/>
                <category>
                    <coding>
                        <system value="http://terminology.hl7.org/CodeSystem/observation-category"/>
                        <code value="imaging"/>
                        <display value="Imaging"/>
                    </coding>
                </category>
                <code>
                    <coding>
                        <system value="http://loinc.org"/>
                        <code value="57112-5"/>
                        <display value="Macular grid.inner inferior subfield thickness by OCT"/>
                    </coding>
                </code>
                <subject>
                    <reference value="urn:uuid:93839ad8-7679-4103-a9cc-4941035a3235"/>
                </subject>
                <effectiveDateTime value="2021-03-16T10:40:00+11:00"/>
                <valueQuantity>
                    <value value="340"/>
                    <unit value="μm"/>
                    <system value="http://unitsofmeasure.org"/>
                    <code value="um"/>
                </valueQuantity>
            </Observation>
        </resource>
    </entry>
    <!-- Macular grid.inner temporal subfield thickness by OCT - right-->
    <entry>
        <fullUrl value="urn:uuid:6b775ec1-9838-469f-9b00-4225385a967e"/>
        <resource>
            <Observation>
                <id value="6b775ec1-9838-469f-9b00-4225385a967e"/>
                <extension url="http://hl7.org/fhir/StructureDefinition/bodySite">
                    <valueReference>
                        <reference value="urn:uuid:6911411e-d529-4d12-9c45-3a8c65ecd23b"/>
                    </valueReference>
                </extension>
                <status value="final"/>
                <category>
                    <coding>
                        <system value="http://terminology.hl7.org/CodeSystem/observation-category"/>
                        <code value="imaging"/>
                        <display value="Imaging"/>
                    </coding>
                </category>
                <code>
                    <coding>
                        <system value="http://loinc.org"/>
                        <code value="57113-3"/>
                        <display value="Macular grid.inner temporal subfield thickness by OCT"/>
                    </coding>
                </code>
                <subject>
                    <reference value="urn:uuid:93839ad8-7679-4103-a9cc-4941035a3235"/>
                </subject>
                <effectiveDateTime value="2021-03-16T10:40:00+11:00"/>
                <valueQuantity>
                    <value value="324"/>
                    <unit value="μm"/>
                    <system value="http://unitsofmeasure.org"/>
                    <code value="um"/>
                </valueQuantity>
            </Observation>
        </resource>
    </entry>
    <!-- Macular grid.outer superior subfield thickness by OCT - right-->
    <entry>
        <fullUrl value="urn:uuid:f5e707b9-02c9-448f-aa29-a2ce92ea5f2e"/>
        <resource>
            <Observation>
                <id value="f5e707b9-02c9-448f-aa29-a2ce92ea5f2e"/>
                <extension url="http://hl7.org/fhir/StructureDefinition/bodySite">
                    <valueReference>
                        <reference value="urn:uuid:6911411e-d529-4d12-9c45-3a8c65ecd23b"/>
                    </valueReference>
                </extension>
                <status value="final"/>
                <category>
                    <coding>
                        <system value="http://terminology.hl7.org/CodeSystem/observation-category"/>
                        <code value="imaging"/>
                        <display value="Imaging"/>
                    </coding>
                </category>
                <code>
                    <coding>
                        <system value="http://loinc.org"/>
                        <code value="57114-1"/>
                        <display value="Macular grid.outer superior subfield thickness by OCT"/>
                    </coding>
                </code>
                <subject>
                    <reference value="urn:uuid:93839ad8-7679-4103-a9cc-4941035a3235"/>
                </subject>
                <effectiveDateTime value="2021-03-16T10:40:00+11:00"/>
                <valueQuantity>
                    <value value="305"/>
                    <unit value="μm"/>
                    <system value="http://unitsofmeasure.org"/>
                    <code value="um"/>
                </valueQuantity>
            </Observation>
        </resource>
    </entry>
    <!-- Macular grid.outer nasal subfield thickness by OCT - right-->
    <entry>
        <fullUrl value="urn:uuid:1c5eb2ea-9c0f-45e6-9651-ffad52a5e4c8"/>
        <resource>
            <Observation>
                <id value="1c5eb2ea-9c0f-45e6-9651-ffad52a5e4c8"/>
                <extension url="http://hl7.org/fhir/StructureDefinition/bodySite">
                    <valueReference>
                        <reference value="urn:uuid:6911411e-d529-4d12-9c45-3a8c65ecd23b"/>
                    </valueReference>
                </extension>
                <status value="final"/>
                <category>
                    <coding>
                        <system value="http://terminology.hl7.org/CodeSystem/observation-category"/>
                        <code value="imaging"/>
                        <display value="Imaging"/>
                    </coding>
                </category>
                <code>
                    <coding>
                        <system value="http://loinc.org"/>
                        <code value="57115-8"/>
                        <display value="Macular grid.outer nasal subfield thickness by OCT"/>
                    </coding>
                </code>
                <subject>
                    <reference value="urn:uuid:93839ad8-7679-4103-a9cc-4941035a3235"/>
                </subject>
                <effectiveDateTime value="2021-03-16T10:40:00+11:00"/>
                <valueQuantity>
                    <value value="323"/>
                    <unit value="μm"/>
                    <system value="http://unitsofmeasure.org"/>
                    <code value="um"/>
                </valueQuantity>
            </Observation>
        </resource>
    </entry>
    <!--Macular grid.outer inferior subfield thickness by OCT - right-->
    <entry>
        <fullUrl value="urn:uuid:4b05e958-b6b2-4854-9a6c-b39068b58042"/>
        <resource>
            <Observation>
                <id value="4b05e958-b6b2-4854-9a6c-b39068b58042"/>
                <extension url="http://hl7.org/fhir/StructureDefinition/bodySite">
                    <valueReference>
                        <reference value="urn:uuid:6911411e-d529-4d12-9c45-3a8c65ecd23b"/>
                    </valueReference>
                </extension>
                <status value="final"/>
                <category>
                    <coding>
                        <system value="http://terminology.hl7.org/CodeSystem/observation-category"/>
                        <code value="imaging"/>
                        <display value="Imaging"/>
                    </coding>
                </category>
                <code>
                    <coding>
                        <system value="http://loinc.org"/>
                        <code value="57116-6"/>
                        <display value="Macular grid.outer inferior subfield thickness by OCT"/>
                    </coding>
                </code>
                <subject>
                    <reference value="urn:uuid:93839ad8-7679-4103-a9cc-4941035a3235"/>
                </subject>
                <effectiveDateTime value="2021-03-16T10:40:00+11:00"/>
                <valueQuantity>
                    <value value="293"/>
                    <unit value="μm"/>
                    <system value="http://unitsofmeasure.org"/>
                    <code value="um"/>
                </valueQuantity>
            </Observation>
        </resource>
    </entry>
    <!--Macular grid.outer temporal subfield thickness by OCT - right-->
    <entry>
        <fullUrl value="urn:uuid:057a1691-0f6e-40c3-accf-8d8bc8481b00"/>
        <resource>
            <Observation>
                <id value="057a1691-0f6e-40c3-accf-8d8bc8481b00"/>
                <extension url="http://hl7.org/fhir/StructureDefinition/bodySite">
                    <valueReference>
                        <reference value="urn:uuid:6911411e-d529-4d12-9c45-3a8c65ecd23b"/>
                    </valueReference>
                </extension>
                <status value="final"/>
                <category>
                    <coding>
                        <system value="http://terminology.hl7.org/CodeSystem/observation-category"/>
                        <code value="imaging"/>
                        <display value="Imaging"/>
                    </coding>
                </category>
                <code>
                    <coding>
                        <system value="http://loinc.org"/>
                        <code value="57117-4"/>
                        <display value="Macular grid.outer temporal subfield thickness by OCT"/>
                    </coding>
                </code>
                <subject>
                    <reference value="urn:uuid:93839ad8-7679-4103-a9cc-4941035a3235"/>
                </subject>
                <effectiveDateTime value="2021-03-16T10:40:00+11:00"/>
                <valueQuantity>
                    <value value="284"/>
                    <unit value="μm"/>
                    <system value="http://unitsofmeasure.org"/>
                    <code value="um"/>
                </valueQuantity>
            </Observation>
        </resource>
    </entry>
    <entry>
        <fullUrl value="urn:uuid:d0dd9638-2e97-4a68-b4b0-b63b29e43f08"/>
        <resource>
            <Observation>
                <id value="d0dd9638-2e97-4a68-b4b0-b63b29e43f08"/>
                <extension url="http://hl7.org/fhir/StructureDefinition/bodySite">
                    <valueReference>
                        <reference value="urn:uuid:6911411e-d529-4d12-9c45-3a8c65ecd23b"/>
                    </valueReference>
                </extension>
                <status value="final"/>
                <category>
                    <coding>
                        <system value="http://terminology.hl7.org/CodeSystem/observation-category"/>
                        <code value="imaging"/>
                        <display value="Imaging"/>
                    </coding>
                </category>
                <code>
                    <coding>
                        <system value="http://loinc.org"/>
                        <code value="57118-2"/>
                        <display value="Macular grid.total volume by OCT"/>
                    </coding>
                </code>
                <subject>
                    <reference value="urn:uuid:93839ad8-7679-4103-a9cc-4941035a3235"/>
                </subject>
                <effectiveDateTime value="2021-03-16T10:40:00+11:00"/>
                <valueQuantity>
                    <value value="8.70"/>
                    <unit value="mm3"/>
                    <system value="http://unitsofmeasure.org"/>
                    <code value="mm3"/>
                </valueQuantity>
            </Observation>
        </resource>
    </entry>
    <!--    BodyStructure - left-->
    <entry>
        <fullUrl value="urn:uuid:8608c337-95aa-46bb-a0db-a08c314f315b"/>
        <resource>
            <BodyStructure>
                <id value="8608c337-95aa-46bb-a0db-a08c314f315b"/>
                <locationQualifier>
                    <coding>
                        <system value="http://snomed.info/sct"/>
                        <code value="7771000"/>
                        <display value="Left"/>
                    </coding>
                </locationQualifier>
                <patient>
                    <reference value="urn:uuid:93839ad8-7679-4103-a9cc-4941035a3235"/>
                </patient>
            </BodyStructure>
        </resource>
    </entry>
    <!--    BodyStructure - right-->
    <entry>
        <fullUrl value="urn:uuid:6911411e-d529-4d12-9c45-3a8c65ecd23b"/>
        <resource>
            <BodyStructure>
                <id value="6911411e-d529-4d12-9c45-3a8c65ecd23b"/>
                <locationQualifier>
                    <coding>
                        <system value="http://snomed.info/sct"/>
                        <code value="24028007"/>
                        <display value="Right"/>
                    </coding>
                </locationQualifier>
                <patient>
                    <reference value="urn:uuid:93839ad8-7679-4103-a9cc-4941035a3235"/>
                </patient>
            </BodyStructure>
        </resource>
    </entry>
    <!--PractitionerRole - Ophthalmologist-->
    <entry>
        <fullUrl value="urn:uuid:7881fd3d-fc94-4701-96fa-489737057598"/>
        <resource>
            <PractitionerRole xmlns="http://hl7.org/fhir">
                <id value="7881fd3d-fc94-4701-96fa-489737057598"/>
                <identifier>
                    <type>
                        <coding>
                            <system value="http://terminology.hl7.org/CodeSystem/v2-0203"/>
                            <code value="NPI"/>
                            <display value="National provider identifier"/>
                        </coding>
                        <text value="HPI-I"/>
                    </type>
                    <system value="http://ns.electronichealth.net.au/id/hi/hpii/1.0"/>
                    <value value="8003618233375103"/>
                </identifier>
                <practitioner>
                    <reference value="urn:uuid:567dec38-0a98-441e-9de2-ba1e8688dcc4"/>
                </practitioner>
                <organization>
                    <reference value="urn:uuid:671b6f87-66f3-4cce-a51e-3311eecbe4fc"/>
                </organization>
                <code>
                    <coding>
                        <system value="http://snomed.info/sct"/>
                        <code value="422234006"/>
                        <display value="Ophthalmologist"/>
                    </coding>
                </code>
                <telecom>
                    <system value="phone"/>
                    <value value="(07) 5550 1234"/>
                </telecom>
                <telecom>
                    <system value="email"/>
                    <value value="contact@eyetest.example.com"/>
                </telecom>
            </PractitionerRole>
        </resource>
    </entry>
    <!--Practitioner - Ophthalmologist-->
    <entry>
        <fullUrl value="urn:uuid:567dec38-0a98-441e-9de2-ba1e8688dcc4"/>
        <resource>
            <Practitioner xmlns="http://hl7.org/fhir">
                <id value="567dec38-0a98-441e-9de2-ba1e8688dcc4"/>
                <identifier>
                    <type>
                        <coding>
                            <system value="http://terminology.hl7.org/CodeSystem/v2-0203"/>
                            <code value="NPI"/>
                            <display value="National provider identifier"/>
                        </coding>
                        <text value="HPI-I"/>
                    </type>
                    <system value="http://ns.electronichealth.net.au/id/hi/hpii/1.0"/>
                    <value value="8003618233375103"/>
                </identifier>
                <name>
                    <family value="Willson"/>
                    <given value="Will"/>
                    <prefix value="Dr."/>
                </name>
            </Practitioner>
        </resource>
    </entry>
    <!--Organization - Ophthalmology clinic -->
    <entry>
        <fullUrl value="urn:uuid:671b6f87-66f3-4cce-a51e-3311eecbe4fc"/>
        <resource>
            <Organization xmlns="http://hl7.org/fhir">
                <id value="671b6f87-66f3-4cce-a51e-3311eecbe4fc"/>
                <identifier>
                    <type>
                        <coding>
                            <system value="http://terminology.hl7.org.au/CodeSystem/v2-0203"/>
                            <code value="NOI"/>
                        </coding>
                        <text value="HPI-O"/>
                    </type>
                    <system value="http://ns.electronichealth.net.au/id/hi/hpio/1.0"/>
                    <value value="8003629900033370"/>
                </identifier>
                <type>
                    <coding>
                        <system value="http://snomed.info/sct"/>
                        <code value="702894003"/>
                        <display value="Ophthalmology clinic"/>
                    </coding>
                </type>
                <name value="Eye Test Clinic"/>
                <address>
                    <use value="work"/>
                    <line value="6789 Anne Road"/>
                    <city value="Brisbane"/>
                    <state value="QLD"/>
                    <postalCode value="4000"/>
                    <country value="AU"/>
                </address>
            </Organization>
        </resource>
    </entry>
    <!--Patient-->
    <entry>
        <fullUrl value="urn:uuid:93839ad8-7679-4103-a9cc-4941035a3235"/>
        <resource>
            <Patient xmlns="http://hl7.org/fhir">
                <id value="93839ad8-7679-4103-a9cc-4941035a3235"/>
                <identifier>
                    <type>
                        <coding>
                            <system value="http://terminology.hl7.org/CodeSystem/v2-0203"/>
                            <code value="MR"/>
                            <display value="Medical record number"/>
                        </coding>
                        <text value="Medical Record Number"/>
                    </type>
                    <system value="http://ns.electronichealth.net.au/id/hpio-scoped/medicalrecord/1.0/8003629900033370" />
                    <value value="123456" />
                    <assigner>
                        <display value="Eye Test Clinic"/>
                    </assigner>
                </identifier>
                <name>
                    <family value="Thompson"/>
                    <given value="Anne"/>
                    <prefix value="Mrs"/>
                </name>
                <gender value="female"/>
                <birthDate value="1978-10-11"/>
            </Patient>
        </resource>
    </entry>
      <entry>
        <fullUrl value="urn:uuid:deb303ac-59b1-4dab-9dcf-9e3115fef583"/>
        <resource>
            <Binary xmlns="http://hl7.org/fhir">
                <id value="deb303ac-59b1-4dab-9dcf-9e3115fef583"/>
                <contentType value="application/pdf"/>
                <data value=""/>
            </Binary>
        </resource>
    </entry>
</Bundle>
