<?xml version="1.0" encoding="UTF-8"?>
<Bundle xmlns="http://hl7.org/fhir">
    <id value="po-doc-01"/>
    <!--Bundle of the set of resources that make up the Personal Observaions for Mr. Oliver Smith recorded by Mother at 6 months generated by MHR system on request by CIS via TBD-->
    <meta>
        <lastUpdated value="2022-11-28T11:01:00+10:00"/>
        <profile value="http://ns.electronichealth.net.au/fhir/StructureDefinition/dh-bundle-document-1"/>
    </meta>
    <identifier>
        <system value="urn:ietf:rfc:3986"/>
        <value value="urn:uuid:69784b45-5069-4f41-9623-c67dd97d978a"/>
    </identifier>
    <type value="document"/>
    <timestamp value="2022-11-28T11:01:00+10:00"/>
    <!--    COMPOSITION    -->
    <entry>
        <fullUrl value="c1f8abb5-d10a-4a9c-9638-46467b7dce80"/>
        <resource>
            <Composition>
                <id value="po-01"/>
                <meta>
                    <profile value="http://ns.electronichealth.net.au/fhir/StructureDefinition/dh-composition-po-1"/>
                </meta>
                <language value="en-AU"/>
                <identifier>
                    <system value="urn:ietf:rfc:3986"/>
                    <value value="urn:oid:2.25.320090414317418051877665573694312012107"/>
                </identifier>
                <status value="final"/>
                <type>
                    <coding>
                        <system
                            value="https://healthterminologies.gov.au/fhir/CodeSystem/nctis-data-components-1"/>
                        <code value="100.16870"/>
                        <display value="Consumer Entered Measurements"/>
                    </coding>
                </type>
                <category>
                    <coding>
                        <system
                            value="https://healthterminologies.gov.au/fhir/CodeSystem/nctis-data-components-1"/>
                        <code value="100.16870"/>
                        <display value="Consumer Entered Measurements"/>
                    </coding>
                </category>
                <subject>
                    <reference value="urn:uuid:9d2114ec-8edc-4634-b979-ba2ff7a4bf43"/>
                    <identifier>
                        <type>
                            <coding>
                                <system value="http://terminology.hl7.org/CodeSystem/v2-0203"/>
                                <code value="NI"/>
                                <display value="National unique individual identifier"/>
                            </coding>
                        </type>
                        <system value="http://ns.electronichealth.net.au/id/hi/ihi/1.0"/>
                        <value value="8003608833357361"/>
                    </identifier>
                </subject>
                <date value="2019-08-14"/>
                <author>
                    <reference value="urn:uuid:7b3bfc51-3f6c-444a-a089-2ebba4e33bac"/>
                    <identifier>
                        <use value="official"/>
                        <type>
                            <coding>
                                <system value="http://terminology.hl7.org/CodeSystem/v2-0203"/>
                                <code value="NI"/>
                                <display value="National unique individual identifier"/>
                            </coding>
                        </type>
                        <system value="http://ns.electronichealth.net.au/id/hi/ihi/1.0"/>
                        <value value="8003608333563104"/>
                    </identifier>
                </author>
                <title value="Oliver's Childhood Observations"/>
                <custodian>
                    <reference value="urn:uuid:20d2d4e1-0ba4-4303-84d7-da2767fbea6d"/>
                    <identifier>
                        <type>
                            <coding>
                                <system value="http://terminology.hl7.org.au/CodeSystem/v2-0203"/>
                                <code value="NOI"/>
                                <display value="National Organisation Identifier"/>
                            </coding>
                            <text value="PAI-O"/>
                        </type>
                        <system value="http://ns.electronichealth.net.au/id/pcehr/paio/1.0"/>
                        <value value="8003640001000036"/>
                    </identifier>
                </custodian>
                <section>
                    <title value="Observations"/>
                    <code>
                        <coding>
                            <system
                                value="https://healthterminologies.gov.au/fhir/CodeSystem/nctis-data-components-1"/>
                            <code value="101.16491"/>
                            <display value="Physical Measurements"/>
                        </coding>
                    </code>
                    <entry>
                        <reference value="urn:uuid:67c0a233-b9d0-4cb2-9685-769db70a2e76"/>
                    </entry>
                    <entry>
                        <reference value="urn:uuid:651fc0a4-b7f8-4b92-bb5a-350d71262a3f"/>
                    </entry>
                    <entry>
                        <reference value="urn:uuid:3de2c7b3-ef57-4697-983b-c49049730334"/>
                    </entry>
                </section>
            </Composition>
        </resource>
    </entry>
    <!--    PATIENT    -->
    <entry>
        <fullUrl value="urn:uuid:9d2114ec-8edc-4634-b979-ba2ff7a4bf43"/>
        <resource>
            <Patient>
                <id value="mhr-smith-oliver"/>
                <extension url="http://hl7.org.au/fhir/StructureDefinition/indigenous-status">
                    <valueCoding>
                        <system
                            value="https://healthterminologies.gov.au/fhir/CodeSystem/australian-indigenous-status-1"/>
                        <code value="4"/>
                        <display value="Neither Aboriginal nor Torres Strait Islander origin"/>
                    </valueCoding>
                </extension>
                <identifier>
                    <use value="official"/>
                    <type>
                        <coding>
                            <system value="http://terminology.hl7.org/CodeSystem/v2-0203"/>
                            <code value="NI"/>
                            <display value="National unique individual identifier"/>
                        </coding>
                    </type>
                    <system value="http://ns.electronichealth.net.au/id/hi/ihi/1.0"/>
                    <value value="8003608833357361"/>
                </identifier>
                <name>
                    <use value="usual"/>
                    <family value="SMITH"/>
                    <given value="Oliver"/>
                    <prefix value="Mr."/>
                </name>
                <gender value="male"/>    
                <birthDate value="2019-02-14"/>
            </Patient>
        </resource>
    </entry>
    <!--    RELATEDPERSON (mhr-field-sally)   -->
    <entry>
        <fullUrl value="urn:uuid:7b3bfc51-3f6c-444a-a089-2ebba4e33bac"/>
        <resource>
            <RelatedPerson>
                <id value="mhr-field-sally"/>
                <identifier>
                    <use value="official"/>
                    <type>
                        <coding>
                            <system value="http://terminology.hl7.org/CodeSystem/v2-0203"/>
                            <code value="NI"/>
                            <display value="National unique individual identifier"/>
                        </coding>
                    </type>
                    <system value="http://ns.electronichealth.net.au/id/hi/ihi/1.0"/>
                    <value value="8003608333563104"/>
                </identifier>
                <patient>
                    <reference value="urn:uuid:9d2114ec-8edc-4634-b979-ba2ff7a4bf43"/>
                    <identifier>
                        <type>
                            <coding>
                                <system value="http://terminology.hl7.org/CodeSystem/v2-0203"/>
                                <code value="NI"/>
                                <display value="National unique individual identifier"/>
                            </coding>
                        </type>
                        <system value="http://ns.electronichealth.net.au/id/hi/ihi/1.0"/>
                        <value value="8003608833357361"/>
                    </identifier>
                </patient>
                <relationship>
                    <coding>
                        <system value="http://terminology.hl7.org/CodeSystem/v3-RoleCode"/>
                        <code value="MTH"/>
                        <display value="mother"/>
                    </coding>
                </relationship>
                <name>
                    <use value="usual"/>
                    <family value="FIELD"/>
                    <given value="Sally"/>
                    <prefix value="Ms."/>
                </name>
                <telecom>
                    <system value="phone"/>
                    <value value="0491 578 957"/>
                    <use value="mobile"/>
                </telecom>
                <gender value="female"/>    
            </RelatedPerson>
        </resource>
    </entry>
    <!--    OBSERVATION (headcircum-01) -->
    <entry>
        <fullUrl value="urn:uuid:67c0a233-b9d0-4cb2-9685-769db70a2e76"/>
        <resource>
            <Observation>
                <id value="headcircum-01"/>
                <status value="final"/>
                <category>
                    <coding>
                        <system value="http://terminology.hl7.org/CodeSystem/observation-category"/>
                        <code value="vital-signs"/>
                        <display value="Vital Signs"/>
                    </coding>
                    <text value="Vital Signs"/>
                </category>
                <code>
                    <coding>
                        <system value="http://loinc.org"/>
                        <code value="9843-4"/>
                        <display value="Head Occipital-frontal circumference"/>
                    </coding>
                    <coding>
                        <system value="http://snomed.info/sct"/>
                        <code value="363812007"/>
                    </coding>
                    <text value="Head Circumference"/>
                </code>
                <subject>
                    <reference value="urn:uuid:9d2114ec-8edc-4634-b979-ba2ff7a4bf43"/>
                    <identifier>
                        <type>
                            <coding>
                                <system value="http://terminology.hl7.org/CodeSystem/v2-0203"/>
                                <code value="NI"/>
                                <display value="National unique individual identifier"/>
                            </coding>
                        </type>
                        <system value="http://ns.electronichealth.net.au/id/hi/ihi/1.0"/>
                        <value value="8003608833357361"/>
                    </identifier>
                </subject>
                <effectiveDateTime value="2019-08-14"/>
                <performer>
                    <reference value="urn:uuid:7b3bfc51-3f6c-444a-a089-2ebba4e33bac"/>
                    <identifier>
                        <use value="official"/>
                        <type>
                            <coding>
                                <system value="http://terminology.hl7.org/CodeSystem/v2-0203"/>
                                <code value="NI"/>
                                <display value="National unique individual identifier"/>
                            </coding>
                        </type>
                        <system value="http://ns.electronichealth.net.au/id/hi/ihi/1.0"/>
                        <value value="8003608333563104"/>
                    </identifier>
                </performer>
                <valueQuantity>
                    <value value="42"/>
                    <unit value="cm"/>
                    <system value="http://unitsofmeasure.org"/>
                    <code value="cm"/>
                </valueQuantity>
            </Observation>
        </resource>
    </entry>
    <!--    OBSERVATION (bodyheight-01)    -->
    <entry>
        <fullUrl value="urn:uuid:651fc0a4-b7f8-4b92-bb5a-350d71262a3f"/>
        <resource>
            <Observation>
                <id value="bodyheight-01"/>
                <status value="final"/>
                <category>
                    <coding>
                        <system value="http://terminology.hl7.org/CodeSystem/observation-category"/>
                        <code value="vital-signs"/>
                        <display value="Vital Signs"/>
                    </coding>
                    <text value="Vital Signs"/>
                </category>
                <code>
                    <coding>
                        <system value="http://loinc.org"/>
                        <code value="8302-2"/>
                        <display value="Body height"/>
                    </coding>
                    <coding>
                        <system value="http://snomed.info/sct"/>
                        <code value="50373000"/>
                    </coding>
                </code>
                <subject>
                    <reference value="urn:uuid:9d2114ec-8edc-4634-b979-ba2ff7a4bf43"/>
                    <identifier>
                        <type>
                            <coding>
                                <system value="http://terminology.hl7.org/CodeSystem/v2-0203"/>
                                <code value="NI"/>
                                <display value="National unique individual identifier"/>
                            </coding>
                        </type>
                        <system value="http://ns.electronichealth.net.au/id/hi/ihi/1.0"/>
                        <value value="8003608833357361"/>
                    </identifier>
                </subject>
                <effectiveDateTime value="2019-08-14"/>
                <performer>
                    <reference value="urn:uuid:7b3bfc51-3f6c-444a-a089-2ebba4e33bac"/>
                    <identifier>
                        <use value="official"/>
                        <type>
                            <coding>
                                <system value="http://terminology.hl7.org/CodeSystem/v2-0203"/>
                                <code value="NI"/>
                                <display value="National unique individual identifier"/>
                            </coding>
                        </type>
                        <system value="http://ns.electronichealth.net.au/id/hi/ihi/1.0"/>
                        <value value="8003608333563104"/>
                    </identifier>
                </performer>
                <valueQuantity>
                    <value value="67"/>
                    <unit value="cm"/>
                    <system value="http://unitsofmeasure.org"/>
                    <code value="cm"/>
                </valueQuantity>
            </Observation>
        </resource>
    </entry>
    <!--    ORGANIZATION (mhr-operator)    -->
    <entry>
        <fullUrl value="urn:uuid:20d2d4e1-0ba4-4303-84d7-da2767fbea6d"/>
        <resource>
            <Organization>
                <id value="mhr-operator"/>
                <identifier>
                    <type>
                        <coding>
                            <system value="http://terminology.hl7.org.au/CodeSystem/v2-0203"/>
                            <code value="NOI"/>
                            <display value="National Organisation Identifier"/>
                        </coding>
                        <text value="PAI-O"/>
                    </type>
                    <system value="http://ns.electronichealth.net.au/id/pcehr/paio/1.0"/>
                    <value value="8003640001000036"/>
                </identifier>
                <name value="My Health Record system operator"/>
            </Organization>
        </resource>
    </entry>
    <!--    OBSERVATION (bodyweight-01)    -->
    <entry>
        <fullUrl value="urn:uuid:3de2c7b3-ef57-4697-983b-c49049730334"/>
        <resource>
            <Observation>
                <id value="bodyweight-01"/>
                <status value="final"/>
                <category>
                    <coding>
                        <system value="http://terminology.hl7.org/CodeSystem/observation-category"/>
                        <code value="vital-signs"/>
                        <display value="Vital Signs"/>
                    </coding>
                    <text value="Vital Signs"/>
                </category>
                <code>
                    <coding>
                        <system value="http://loinc.org"/>
                        <code value="29463-7"/>
                        <display value="Body weight"/>
                    </coding>
                    <coding>
                        <system value="http://snomed.info/sct"/>
                        <code value="27113001"/>
                    </coding>
                    <text value="weight"/>
                </code>
                <subject>
                    <reference value="urn:uuid:9d2114ec-8edc-4634-b979-ba2ff7a4bf43"/>
                    <identifier>
                        <type>
                            <coding>
                                <system value="http://terminology.hl7.org/CodeSystem/v2-0203"/>
                                <code value="NI"/>
                                <display value="National unique individual identifier"/>
                            </coding>
                        </type>
                        <system value="http://ns.electronichealth.net.au/id/hi/ihi/1.0"/>
                        <value value="8003608833357361"/>
                    </identifier>
                </subject>
                <effectiveDateTime value="2019-08-14"/>
                <performer>
                    <reference value="urn:uuid:7b3bfc51-3f6c-444a-a089-2ebba4e33bac"/>
                    <identifier>
                        <use value="official"/>
                        <type>
                            <coding>
                                <system value="http://terminology.hl7.org/CodeSystem/v2-0203"/>
                                <code value="NI"/>
                                <display value="National unique individual identifier"/>
                            </coding>
                        </type>
                        <system value="http://ns.electronichealth.net.au/id/hi/ihi/1.0"/>
                        <value value="8003608333563104"/>
                    </identifier>
                </performer>
                <valueQuantity>
                    <value value="7.9"/>
                    <unit value="kg"/>
                    <system value="http://unitsofmeasure.org"/>
                    <code value="kg"/>
                </valueQuantity>
            </Observation>
        </resource>
    </entry>
</Bundle>
