<?xml version="1.0" encoding="UTF-8"?>
<Bundle xmlns="http://hl7.org/fhir">
    <id value="medicare-view-doc-01"/>
    <!--Document Bundle of Medicare Overview for Patient Sally FIELD IHI 8003608833357361 generated by MHR system (28 MARCH 2022)-->
    <meta>
        <lastUpdated value="2022-03-28T11:01:00+10:00"/>
        <profile
            value="http://ns.electronichealth.net.au/fhir/StructureDefinition/dh-bundle-document-1"
        />
    </meta>
    <!--Due to business rules on this document type Bundle.identifier = Composition.identifier-->
    <identifier>
        <system value="urn:ietf:rfc:3986"/>
        <value value="urn:uuid:6c609115-94ec-40bc-b72e-3ce9e98cf2e8"/>
    </identifier>
    <type value="document"/>
    <timestamp value="2022-03-26T11:01:00+10:00"/>
    <!--    COMPOSITION    -->
    <entry>
        <fullUrl value="urn:uuid:7f001c3b-16f3-47e9-b936-f5ab5e523b0f"/>
        <resource>
            <Composition>
                <id value="medicare-view-doc-01"/>
                <language value="en-AU"/>
                <identifier>
                    <system value="urn:ietf:rfc:3986"/>
                    <value value="urn:uuid:6c609115-94ec-40bc-b72e-3ce9e98cf2e8"/>
                </identifier>
                <status value="final"/>
                <type>
                    <coding>
                        <system
                            value="https://healthterminologies.gov.au/fhir/CodeSystem/nctis-data-components-1"/>
                        <code value="100.16767"/>
                        <display value="Medicare Overview"/>
                    </coding>
                </type>
                <category>
                    <coding>
                        <system
                            value="https://healthterminologies.gov.au/fhir/CodeSystem/nctis-data-components-1"/>
                        <code value="100.16767"/>
                        <display value="Medicare Overview"/>
                    </coding>
                </category>
                <subject>
                    <reference value="urn:uuid:a08d6100-86db-41c2-a222-5680671749f4"/>
                    <identifier>
                        <type>
                            <coding>
                                <system value="http://terminology.hl7.org/CodeSystem/v2-0203"/>
                                <code value="NI"/>
                                <display value="National unique individual identifier"/>
                            </coding>
                            <text value="IHI"/>
                        </type>
                        <system value="http://ns.electronichealth.net.au/id/hi/ihi/1.0"/>
                        <value value="8003608833357361"/>
                    </identifier>
                </subject>
                <date value="2017-06-21T09:00:15+10:00"/>
                <author>
                    <identifier>
                        <type>
                            <coding>
                                <system value="http://terminology.hl7.org.au/CodeSystem/v2-0203"/>
                                <code value="NDI"/>
                                <display value="National Device Identifier"/>
                            </coding>
                            <text value="PAI-D"/>
                        </type>
                        <system value="http://ns.electronichealth.net.au/id/pcehr/paid/1.0"/>
                        <value value="8003640003000026"/>
                    </identifier>
                    <display value="My Health Record System"/>
                </author>
                <title value="Medicare Overview"/>
                <custodian>
                    <identifier>
                        <type>
                            <coding>
                                <system value="http://terminology.hl7.org.au/CodeSystem/v2-0203"/>
                                <code value="NOI"/>
                                <display value="National Organisation Identifier"/>
                            </coding>
                            <text value="PAI-O"/>
                        </type>
                        <system value="http://ns.electronichealth.net.au/id/pcehr/paio/1.0"/>
                        <value value="8003640001000036"/>
                    </identifier>
                    <display value="My Health Record System Operator"/>
                </custodian>
                <section>
                    <title value="Prescription Information - PBS and RPBS"/>
                    <code>
                        <coding>
                            <system
                                value="https://healthterminologies.gov.au/fhir/CodeSystem/nctis-data-components-1"/>
                            <code value="101.16778"/>
                        </coding>
                    </code>
                    <text>
                        <status value="additional"/>
                        <div xmlns="http://www.w3.org/1999/xhtml">
                            <table>
                                <caption>Prescription Information - PBS and RPBS</caption>
                                <thead>
                                    <tr>
                                        <th>Prescribed</th>
                                        <th>Supplied</th>
                                        <th>PBS Item Number</th>
                                        <th>Description</th>
                                        <th>Quantity</th>
                                        <th>Service Provider</th>
                                    </tr>
                                </thead>
                                <tbody>
                                    <tr>
                                        <td>15/01/2020</td>
                                        <td>16/01/2020</td>
                                        <td>03119E</td>
                                        <td>cephalexin 500 mg capsule, 20</td>
                                        <td>500 tablets</td>
                                        <td>Mr. Representative Pharmacist</td>
                                    </tr>
                                    <tr>
                                        <td>15/01/2020</td>
                                        <td>16/02/2020</td>
                                        <td>03119E</td>
                                        <td>cephalexin 500 mg capsule, 20</td>
                                        <td>500 tablets</td>
                                        <td>Mr. Representative Pharmacist</td>
                                    </tr>
                                </tbody>
                            </table>
                        </div>
                    </text>
                    <entry>
                        <reference value="urn:uuid:bdc3be54-da77-41a9-a489-58387e13c94e"/>
                    </entry>
                    <entry>
                        <reference value="urn:uuid:d8f3afee-b3f7-4768-964c-134178703836"/>
                    </entry>
                </section>
                <section>
                    <title value="Australian Immunisation Register - AIR"/>
                    <code>
                        <coding>
                            <system
                                value="https://healthterminologies.gov.au/fhir/CodeSystem/nctis-data-components-1"/>
                            <code value="101.16776"/>
                        </coding>
                    </code>
                    <text>
                        <status value="additional"/>
                        <div xmlns="http://www.w3.org/1999/xhtml">
                            <p><b>COVID 19 Immunisation Status: </b>This individual has received all
                                required COVID-19 vaccines.</p>
                            <h3>Immunisation History</h3>
                            <table>
                                <thead>
                                    <tr>
                                        <th>Date Given</th>
                                        <th>Immunisation</th>
                                        <th>Brand Name Given</th>
                                    </tr>
                                </thead>
                                <tbody>
                                    <tr>
                                        <td>14/02/1999</td>
                                        <td>Hepatitis B</td>
                                        <td>Engerix-B (paediatric)</td>
                                    </tr>
                                    <tr>
                                        <td>14/04/1999</td>
                                        <td>Diphtheria, Tetanus, Pertussis, Hepatitis B, Polio,
                                            Hib</td>
                                        <td>Infanrix Hexa</td>
                                    </tr>
                                    <tr>
                                        <td>15/06/1999</td>
                                        <td>Diphtheria, Tetanus, Pertussis, Hepatitis B, Polio,
                                            Hib</td>
                                        <td>Infanrix Hexa</td>
                                    </tr>
                                    <tr>
                                        <td>14/08/1999</td>
                                        <td>Diphtheria, Tetanus, Pertussis, Hepatitis B, Polio,
                                            Hib</td>
                                        <td>Infanrix Hexa</td>
                                    </tr>
                                    <tr>
                                        <td>14/08/2000</td>
                                        <td>Diphtheria, Tetanus, Pertussis, Hepatitis B, Polio,
                                            Hib</td>
                                        <td>Infanrix Hexa</td>
                                    </tr>
                                    <tr>
                                        <td>14/02/2003</td>
                                        <td>Diphtheria, Tetanus, Pertussis, Hepatitis B, Polio,
                                            Hib</td>
                                        <td>Infanrix Hexa</td>
                                    </tr>
                                    <tr>
                                        <td>01/03/2020</td>
                                        <td>Influenza</td>
                                        <td>Panvax</td>
                                    </tr>
                                    <tr>
                                        <td>01/03/2021</td>
                                        <td>Influenza</td>
                                        <td>Panvax</td>
                                    </tr>
                                    <tr>
                                        <td>17/06/2021</td>
                                        <td>COVID-19</td>
                                        <td>Pfizer Comirnaty</td>
                                    </tr>
                                    <tr>
                                        <td>01/08/2021</td>
                                        <td>COVID-19</td>
                                        <td>Brand Name Given</td>
                                    </tr>
                                    <tr>
                                        <td>01/03/2022</td>
                                        <td>Influenza</td>
                                        <td>Panvax</td>
                                    </tr>
                                    <tr>
                                        <td>14/02/2022</td>
                                        <td>COVID-19</td>
                                        <td>Moderna Spikevax</td>
                                    </tr>
                                </tbody>
                            </table>
                            <h3>Next NIP Immunisation/s due</h3>
                            <p>No vacines due.</p>
                            <h3>Notice/s</h3>
                            <p>Natural immunity to Measles recorded on 28 Oct 2020.</p>
                        </div>
                    </text>
                    <entry>
                        <reference value="urn:uuid:22205966-3617-4fe5-837a-8f460af05363"/>
                    </entry>
                    <entry>
                        <reference value="urn:uuid:c4e2881c-59e2-4a8d-b199-0e1f03cd2c0b"/>
                    </entry>
                    <entry>
                        <reference value="urn:uuid:e2cefbf0-abbb-4b2d-8e11-1219cb8af43b"/>
                    </entry>
                    <entry>
                        <reference value="urn:uuid:35ce4478-9e93-4b74-b43b-b1f431743a31"/>
                    </entry>
                    <entry>
                        <reference value="urn:uuid:33795ea7-2e3b-4465-9f07-6afae3d83d85"/>
                    </entry>
                    <entry>
                        <reference value="urn:uuid:6836c46f-9aa3-4726-9900-075548f3cc59"/>
                    </entry>
                    <entry>
                        <reference value="urn:uuid:d0b66b89-1dfd-47bb-845f-6f066b2f3e80"/>
                    </entry>
                    <entry>
                        <reference value="urn:uuid:44dd4cef-2e9f-4a5b-bfd8-6a1833c32697"/>
                    </entry>
                    <entry>
                        <reference value="urn:uuid:d4884e30-5b0f-46fd-85b8-3c8ad0a2cef5"/>
                    </entry>
                    <entry>
                        <reference value="urn:uuid:dcf047fe-5adf-4c06-8d62-dd9e6fda5acb"/>
                    </entry>
                    <entry>
                        <reference value="urn:uuid:8fb75c37-49cf-422b-805c-233ff8b061e6"/>
                    </entry>
                    <entry>
                        <reference value="urn:uuid:ab673757-9811-47d5-9ec1-f1451c5e295b"/>
                    </entry>
                    <entry>
                        <reference value="urn:uuid:3bdcab6e-371c-4771-9902-d077d548536c"/>
                    </entry>
                    <entry>
                        <reference value="urn:uuid:3d2d99de-a1fd-4536-b31b-19c9be798aa0"/>
                    </entry>
                </section>
                <section>
                    <title value="Australian Organ Donor Register - AODR"/>
                    <code>
                        <coding>
                            <system
                                value="https://healthterminologies.gov.au/fhir/CodeSystem/nctis-data-components-1"/>
                            <code value="101.16774"/>
                        </coding>
                    </code>
                    <text>
                        <status value="additional"/>
                        <div xmlns="http://www.w3.org/1999/xhtml">
                            <p>No Information Available</p>
                        </div>
                    </text>
                    <emptyReason>
                        <coding>
                            <system value="http://terminology.hl7.org/CodeSystem/list-empty-reason"/>
                            <code value="unavailable"/>
                        </coding>
                        <text value="No Information Available"/>
                    </emptyReason>
                </section>
                <section>
                    <title value="Medicare Services - MBS and DVA Items"/>
                    <code>
                        <coding>
                            <system
                                value="https://healthterminologies.gov.au/fhir/CodeSystem/nctis-data-components-1"/>
                            <code value="101.16780"/>
                        </coding>
                    </code>
                    <text>
                        <status value="additional"/>
                        <div xmlns="http://www.w3.org/1999/xhtml">
                            <table>
                                <caption>Medicare Services - MBS and DVA Items</caption>
                                <thead>
                                    <tr>
                                        <th>Date</th>
                                        <th>MBS Item Number</th>
                                        <th>Description</th>
                                        <th>Service Provider</th>
                                    </tr>
                                </thead>
                                <tbody>
                                    <tr>
                                        <td>16 December 2017</td>
                                        <td>30185</td>
                                        <td>Palmar or plantar warts (10 or more), definitive removal
                                            of, excluding ablative methods alone, not being a
                                            service to which item 30186 or 30187 applies
                                            (Anaes.)</td>
                                        <td>Dr. Jeong-Hoon Kim</td>
                                    </tr>
                                    <tr>
                                        <td>16 December 2018</td>
                                        <td>30191</td>
                                        <td>Treatment of tumours with laser</td>
                                        <td>Dr. Jeong-Hoon Kim</td>
                                    </tr>
                                </tbody>
                            </table>
                        </div>
                    </text>
                    <entry>
                        <reference value="urn:uuid:e821c52c-889d-4ead-89ee-99eb9561e91e"/>
                    </entry>
                    <entry>
                        <reference value="urn:uuid:3a3aebc9-a95c-4821-9e76-d0802f77d62c"/>
                    </entry>
                </section>
            </Composition>
        </resource>
    </entry>
    <!--    PATIENT    -->
    <entry>
        <fullUrl value="urn:uuid:a08d6100-86db-41c2-a222-5680671749f4"/>
        <resource>
            <Patient>
                <id value="mhr-field-sally"/>
                <extension url="http://hl7.org.au/fhir/StructureDefinition/indigenous-status">
                    <valueCoding>
                        <system
                            value="https://healthterminologies.gov.au/fhir/CodeSystem/australian-indigenous-status-1"/>
                        <code value="4"/>
                        <display value="Neither Aboriginal nor Torres Strait Islander origin"/>
                    </valueCoding>
                </extension>
                <identifier>
                    <use value="official"/>
                    <type>
                        <coding>
                            <system value="http://terminology.hl7.org/CodeSystem/v2-0203"/>
                            <code value="NI"/>
                            <display value="National unique individual identifier"/>
                        </coding>
                    </type>
                    <system value="http://ns.electronichealth.net.au/id/hi/ihi/1.0"/>
                    <value value="8003608333563104"/>
                </identifier>
                <name>
                    <use value="usual"/>
                    <family value="FIELD"/>
                    <given value="Sally"/>
                    <prefix value="Ms."/>
                </name>
                <gender value="female"/>
                <birthDate value="1999-02-14"/>
            </Patient>
        </resource>
    </entry>
    <!--    ORGANIZATION MEDICARE REPSITORY SERVICE   -->
    <entry>
        <fullUrl value="urn:uuid:d85721f7-df00-4c2f-b99c-5b001c94e6e5"/>
        <resource>
            <Organization>
                <id value="medicare-rs-operator"/>
                <identifier>
                    <type>
                        <coding>
                            <system value="http://terminology.hl7.org.au/CodeSystem/v2-0203"/>
                            <code value="NOI"/>
                            <display value="National Organisation Identifier"/>
                        </coding>
                        <text value="PAI-O"/>
                    </type>
                    <system value="http://ns.electronichealth.net.au/id/pcehr/paio/1.0"/>
                    <value value="8003640001000010"/>
                </identifier>
                <name value="Medicare Australia repository services operator"/>
            </Organization>
        </resource>
    </entry>
    <!--    FLAG (air-01) -->
    <entry>
        <fullUrl value="urn:uuid:22205966-3617-4fe5-837a-8f460af05363"/>
        <resource>
            <Flag>
                <id value="air-02"/>
                <!--identifier for the AIR record from AIR Medicare repository-->
                <identifier>
                    <system value="urn:ietf:rfc:3986"/>
                    <value value="urn:uuid:475db616-dfd5-43f3-b935-9f582233a38d"/>
                </identifier>
                <status value="active"/>
                <category>
                    <coding>
                        <system value="http://snomed.info/sct"/>
                        <code value="1500551000168103"/>
                    </coding>
                    <text value="Australian Immunisation Register notice"/>
                </category>
                <code>
                    <text value="Natural immunity to Measles recorded on 28 Oct 2020."/>
                </code>
                <subject>
                    <reference value="urn:uuid:a08d6100-86db-41c2-a222-5680671749f4"/>
                    <identifier>
                        <type>
                            <coding>
                                <system value="http://terminology.hl7.org/CodeSystem/v2-0203"/>
                                <code value="NI"/>
                                <display value="National unique individual identifier"/>
                            </coding>
                            <text value="IHI"/>
                        </type>
                        <system value="http://ns.electronichealth.net.au/id/hi/ihi/1.0"/>
                        <value value="8003608833357361"/>
                    </identifier>
                </subject>
                <author>
                    <reference value="urn:uuid:d85721f7-df00-4c2f-b99c-5b001c94e6e5"/>
                    <identifier>
                        <type>
                            <coding>
                                <system value="http://terminology.hl7.org.au/CodeSystem/v2-0203"/>
                                <code value="NOI"/>
                                <display value="National Organisation Identifier"/>
                            </coding>
                            <text value="PAI-O"/>
                        </type>
                        <system value="http://ns.electronichealth.net.au/id/pcehr/paio/1.0"/>
                        <value value="8003640001000036"/>
                    </identifier>
                </author>
            </Flag>
        </resource>
    </entry>
    <!--    IMMUNIZATION (air-covid-01)    -->
    <entry>
        <fullUrl value="urn:uuid:e2cefbf0-abbb-4b2d-8e11-1219cb8af43b"/>
        <resource>
            <Immunization>
                <id value="air-covid-01"/>
                <extension url="http://hl7.org.au/fhir/StructureDefinition/vaccine-serial-number">
                    <!--Vial serial number below does not conform to reporting requirements to avoid conflict with real world values-->
                    <valueString value="vNo1111"/>
                </extension>
                <!--identifier for the AIR record from AIR Medicare repository-->
                <identifier>
                    <system value="urn:ietf:rfc:3986"/>
                    <value value="urn:uuid:475db616-dfd5-43f3-b935-9f582233a38d"/>
                </identifier>
                <status value="completed"/>
                <vaccineCode>
                    <coding>
                        <system
                            value="https://www.humanservices.gov.au/organisations/health-professionals/enablers/air-vaccine-code-formats"/>
                        <code value="COMIRN"/>
                    </coding>
                    <text value="Pfizer Comirnaty"/>
                </vaccineCode>
                <patient>
                    <reference value="urn:uuid:a08d6100-86db-41c2-a222-5680671749f4"/>
                    <identifier>
                        <type>
                            <coding>
                                <system value="http://terminology.hl7.org/CodeSystem/v2-0203"/>
                                <code value="NI"/>
                                <display value="National unique individual identifier"/>
                            </coding>
                            <text value="IHI"/>
                        </type>
                        <system value="http://ns.electronichealth.net.au/id/hi/ihi/1.0"/>
                        <value value="8003608833357361"/>
                    </identifier>
                </patient>
                <occurrenceDateTime value="2021-06-17"/>
                <primarySource value="true"/>
                <protocolApplied>
                    <targetDisease>
                        <text value="COVID-19"/>
                    </targetDisease>
                    <doseNumberPositiveInt value="1"/>
                </protocolApplied>
            </Immunization>
        </resource>
    </entry>
    <!--    IMMUNIZATION (air-covid-02)    -->
    <entry>
        <fullUrl value="urn:uuid:35ce4478-9e93-4b74-b43b-b1f431743a31"/>
        <resource>
            <Immunization>
                <id value="air-covid-02"/>
                <!--identifier for the AIR record from AIR Medicare repository-->
                <identifier>
                    <system value="urn:ietf:rfc:3986"/>
                    <value value="urn:uuid:475db616-dfd5-43f3-b935-9f582233a38d"/>
                </identifier>
                <status value="completed"/>
                <vaccineCode>
                    <coding>
                        <system
                            value="https://www.humanservices.gov.au/organisations/health-professionals/enablers/air-vaccine-code-formats"/>
                        <code value="COMIRN"/>
                    </coding>
                    <text value="Pfizer Comirnaty"/>
                </vaccineCode>
                <patient>
                    <reference value="urn:uuid:a08d6100-86db-41c2-a222-5680671749f4"/>
                    <identifier>
                        <type>
                            <coding>
                                <system value="http://terminology.hl7.org/CodeSystem/v2-0203"/>
                                <code value="NI"/>
                                <display value="National unique individual identifier"/>
                            </coding>
                            <text value="IHI"/>
                        </type>
                        <system value="http://ns.electronichealth.net.au/id/hi/ihi/1.0"/>
                        <value value="8003608833357361"/>
                    </identifier>
                </patient>
                <occurrenceDateTime value="2021-08-01"/>
                <primarySource value="true"/>
                <protocolApplied>
                    <targetDisease>
                        <text value="COVID-19"/>
                    </targetDisease>
                    <doseNumberPositiveInt value="2"/>
                </protocolApplied>
            </Immunization>
        </resource>
    </entry>
    <!--    IMMUNIZATION (air-covid-03)    -->
    <entry>
        <fullUrl value="urn:uuid:33795ea7-2e3b-4465-9f07-6afae3d83d85"/>
        <resource>
            <Immunization>
                <id value="air-covid-03"/>
                <!--identifier for the AIR record from AIR Medicare repository-->
                <identifier>
                    <system value="urn:ietf:rfc:3986"/>
                    <value value="urn:uuid:475db616-dfd5-43f3-b935-9f582233a38d"/>
                </identifier>
                <status value="completed"/>
                <vaccineCode>
                    <coding>
                        <system
                            value="https://www.humanservices.gov.au/organisations/health-professionals/enablers/air-vaccine-code-formats"/>
                        <code value="MODERN"/>
                    </coding>
                    <text value="Moderna Spikevax"/>
                </vaccineCode>
                <patient>
                    <reference value="urn:uuid:a08d6100-86db-41c2-a222-5680671749f4"/>
                    <identifier>
                        <type>
                            <coding>
                                <system value="http://terminology.hl7.org/CodeSystem/v2-0203"/>
                                <code value="NI"/>
                                <display value="National unique individual identifier"/>
                            </coding>
                            <text value="IHI"/>
                        </type>
                        <system value="http://ns.electronichealth.net.au/id/hi/ihi/1.0"/>
                        <value value="8003608833357361"/>
                    </identifier>
                </patient>
                <occurrenceDateTime value="2022-02-14"/>
                <primarySource value="true"/>
                <protocolApplied>
                    <targetDisease>
                        <text value="COVID-19"/>
                    </targetDisease>
                    <doseNumberPositiveInt value="3"/>
                </protocolApplied>
            </Immunization>
        </resource>
    </entry>
    <!--    IMMUNIZATION (air-dip-01)    -->
    <entry>
        <fullUrl value="urn:uuid:6836c46f-9aa3-4726-9900-075548f3cc59"/>
        <resource>
            <Immunization>
                <id value="air-dip-01"/>
                <!--identifier for the AIR record from AIR Medicare repository-->
                <identifier>
                    <system value="urn:ietf:rfc:3986"/>
                    <value value="urn:uuid:475db616-dfd5-43f3-b935-9f582233a38d"/>
                </identifier>
                <status value="completed"/>

                <vaccineCode>
                    <coding>
                        <system
                            value="https://www.humanservices.gov.au/organisations/health-professionals/enablers/air-vaccine-code-formats"/>
                        <code value="IFHX"/>
                    </coding>
                    <text value="Infanrix Hexa"/>
                </vaccineCode>
                <patient>
                    <reference value="urn:uuid:a08d6100-86db-41c2-a222-5680671749f4"/>
                    <identifier>
                        <type>
                            <coding>
                                <system value="http://terminology.hl7.org/CodeSystem/v2-0203"/>
                                <code value="NI"/>
                                <display value="National unique individual identifier"/>
                            </coding>
                            <text value="IHI"/>
                        </type>
                        <system value="http://ns.electronichealth.net.au/id/hi/ihi/1.0"/>
                        <value value="8003608833357361"/>
                    </identifier>
                </patient>
                <occurrenceDateTime value="1999-04-14"/>
                <primarySource value="true"/>
                <protocolApplied>
                    <targetDisease>
                        <text value="Diphtheria"/>
                    </targetDisease>
                    <targetDisease>
                        <text value="Tetanus"/>
                    </targetDisease>
                    <targetDisease>
                        <text value="Pertussis"/>
                    </targetDisease>
                    <targetDisease>
                        <text value="Hepatitis B"/>
                    </targetDisease>
                    <targetDisease>
                        <text value="Polio"/>
                    </targetDisease>
                    <targetDisease>
                        <text value="Hib"/>
                    </targetDisease>
                    <doseNumberPositiveInt value="1"/>
                </protocolApplied>
            </Immunization>
        </resource>
    </entry>
    <!--    IMMUNIZATION (air-dip-02)    -->
    <entry>
        <fullUrl value="urn:uuid:d0b66b89-1dfd-47bb-845f-6f066b2f3e80"/>
        <resource>
            <Immunization>
                <id value="air-dip-02"/>
                <!--identifier for the AIR record from AIR Medicare repository-->
                <identifier>
                    <system value="urn:ietf:rfc:3986"/>
                    <value value="urn:uuid:475db616-dfd5-43f3-b935-9f582233a38d"/>
                </identifier>
                <status value="completed"/>

                <vaccineCode>
                    <coding>
                        <system
                            value="https://www.humanservices.gov.au/organisations/health-professionals/enablers/air-vaccine-code-formats"/>
                        <code value="IFHX"/>
                    </coding>
                    <text value="Infanrix Hexa"/>
                </vaccineCode>
                <patient>
                    <reference value="urn:uuid:a08d6100-86db-41c2-a222-5680671749f4"/>
                    <identifier>
                        <type>
                            <coding>
                                <system value="http://terminology.hl7.org/CodeSystem/v2-0203"/>
                                <code value="NI"/>
                                <display value="National unique individual identifier"/>
                            </coding>
                            <text value="IHI"/>
                        </type>
                        <system value="http://ns.electronichealth.net.au/id/hi/ihi/1.0"/>
                        <value value="8003608833357361"/>
                    </identifier>
                </patient>
                <occurrenceDateTime value="1999-06-14"/>
                <primarySource value="true"/>
                <protocolApplied>
                    <targetDisease>
                        <text value="Diphtheria"/>
                    </targetDisease>
                    <targetDisease>
                        <text value="Tetanus"/>
                    </targetDisease>
                    <targetDisease>
                        <text value="Pertussis"/>
                    </targetDisease>
                    <targetDisease>
                        <text value="Hepatitis B"/>
                    </targetDisease>
                    <targetDisease>
                        <text value="Polio"/>
                    </targetDisease>
                    <targetDisease>
                        <text value="Hib"/>
                    </targetDisease>
                    <doseNumberPositiveInt value="2"/>
                </protocolApplied>
            </Immunization>
        </resource>
    </entry>
    <!--    IMMUNIZATION (air-dip-03)    -->
    <entry>
        <fullUrl value="urn:uuid:44dd4cef-2e9f-4a5b-bfd8-6a1833c32697"/>
        <resource>
            <Immunization>
                <id value="air-dip-03"/>
                <!--identifier for the AIR record from AIR Medicare repository-->
                <identifier>
                    <system value="urn:ietf:rfc:3986"/>
                    <value value="urn:uuid:475db616-dfd5-43f3-b935-9f582233a38d"/>
                </identifier>
                <status value="completed"/>

                <vaccineCode>
                    <coding>
                        <system
                            value="https://www.humanservices.gov.au/organisations/health-professionals/enablers/air-vaccine-code-formats"/>
                        <code value="IFHX"/>
                    </coding>
                    <text value="Infanrix Hexa"/>
                </vaccineCode>
                <patient>
                    <reference value="urn:uuid:a08d6100-86db-41c2-a222-5680671749f4"/>
                    <identifier>
                        <type>
                            <coding>
                                <system value="http://terminology.hl7.org/CodeSystem/v2-0203"/>
                                <code value="NI"/>
                                <display value="National unique individual identifier"/>
                            </coding>
                            <text value="IHI"/>
                        </type>
                        <system value="http://ns.electronichealth.net.au/id/hi/ihi/1.0"/>
                        <value value="8003608833357361"/>
                    </identifier>
                </patient>
                <occurrenceDateTime value="1999-08-14"/>
                <primarySource value="true"/>
                <protocolApplied>
                    <targetDisease>
                        <text value="Diphtheria"/>
                    </targetDisease>
                    <targetDisease>
                        <text value="Tetanus"/>
                    </targetDisease>
                    <targetDisease>
                        <text value="Pertussis"/>
                    </targetDisease>
                    <targetDisease>
                        <text value="Hepatitis B"/>
                    </targetDisease>
                    <targetDisease>
                        <text value="Polio"/>
                    </targetDisease>
                    <targetDisease>
                        <text value="Hib"/>
                    </targetDisease>
                    <doseNumberPositiveInt value="3"/>
                </protocolApplied>
            </Immunization>
        </resource>
    </entry>
    <!--    IMMUNIZATION (air-dip-04)    -->
    <entry>
        <fullUrl value="urn:uuid:d4884e30-5b0f-46fd-85b8-3c8ad0a2cef5"/>
        <resource>
            <Immunization>
                <id value="air-dip-04"/>
                <!--identifier for the AIR record from AIR Medicare repository-->
                <identifier>
                    <system value="urn:ietf:rfc:3986"/>
                    <value value="urn:uuid:475db616-dfd5-43f3-b935-9f582233a38d"/>
                </identifier>
                <status value="completed"/>

                <vaccineCode>
                    <coding>
                        <system
                            value="https://www.humanservices.gov.au/organisations/health-professionals/enablers/air-vaccine-code-formats"/>
                        <code value="IFHX"/>
                    </coding>
                    <text value="Infanrix Hexa"/>
                </vaccineCode>
                <patient>
                    <reference value="urn:uuid:a08d6100-86db-41c2-a222-5680671749f4"/>
                    <identifier>
                        <type>
                            <coding>
                                <system value="http://terminology.hl7.org/CodeSystem/v2-0203"/>
                                <code value="NI"/>
                                <display value="National unique individual identifier"/>
                            </coding>
                            <text value="IHI"/>
                        </type>
                        <system value="http://ns.electronichealth.net.au/id/hi/ihi/1.0"/>
                        <value value="8003608833357361"/>
                    </identifier>
                </patient>
                <occurrenceDateTime value="2000-08-14"/>
                <primarySource value="true"/>
                <protocolApplied>
                    <targetDisease>
                        <text value="Diphtheria"/>
                    </targetDisease>
                    <targetDisease>
                        <text value="Tetanus"/>
                    </targetDisease>
                    <targetDisease>
                        <text value="Pertussis"/>
                    </targetDisease>
                    <targetDisease>
                        <text value="Hepatitis B"/>
                    </targetDisease>
                    <targetDisease>
                        <text value="Polio"/>
                    </targetDisease>
                    <targetDisease>
                        <text value="Hib"/>
                    </targetDisease>
                    <doseNumberPositiveInt value="4"/>
                </protocolApplied>
            </Immunization>
        </resource>
    </entry>
    <!--    IMMUNIZATION (air-dip-05)    -->
    <entry>
        <fullUrl value="urn:uuid:dcf047fe-5adf-4c06-8d62-dd9e6fda5acb"/>
        <resource>
            <Immunization>
                <id value="air-dip-05"/>
                <!--identifier for the AIR record from AIR Medicare repository-->
                <identifier>
                    <system value="urn:ietf:rfc:3986"/>
                    <value value="urn:uuid:475db616-dfd5-43f3-b935-9f582233a38d"/>
                </identifier>
                <status value="completed"/>
                <vaccineCode>
                    <coding>
                        <system
                            value="https://www.humanservices.gov.au/organisations/health-professionals/enablers/air-vaccine-code-formats"/>
                        <code value="IFHX"/>
                    </coding>
                    <text value="Infanrix Hexa"/>
                </vaccineCode>
                <patient>
                    <reference value="urn:uuid:a08d6100-86db-41c2-a222-5680671749f4"/>
                    <identifier>
                        <type>
                            <coding>
                                <system value="http://terminology.hl7.org/CodeSystem/v2-0203"/>
                                <code value="NI"/>
                                <display value="National unique individual identifier"/>
                            </coding>
                            <text value="IHI"/>
                        </type>
                        <system value="http://ns.electronichealth.net.au/id/hi/ihi/1.0"/>
                        <value value="8003608833357361"/>
                    </identifier>
                </patient>
                <occurrenceDateTime value="2003-02-14"/>
                <primarySource value="true"/>
                <protocolApplied>
                    <targetDisease>
                        <text value="Diphtheria"/>
                    </targetDisease>
                    <targetDisease>
                        <text value="Tetanus"/>
                    </targetDisease>
                    <targetDisease>
                        <text value="Pertussis"/>
                    </targetDisease>
                    <targetDisease>
                        <text value="Hepatitis B"/>
                    </targetDisease>
                    <targetDisease>
                        <text value="Polio"/>
                    </targetDisease>
                    <targetDisease>
                        <text value="Hib"/>
                    </targetDisease>
                    <doseNumberPositiveInt value="5"/>
                </protocolApplied>
            </Immunization>
        </resource>
    </entry>
    <!--    IMMUNIZATION (air-hepb-01)    -->
    <entry>
        <fullUrl value="urn:uuid:8fb75c37-49cf-422b-805c-233ff8b061e6"/>
        <resource>
            <Immunization>
                <id value="air-hepb-01"/>
                <!--identifier for the AIR record from AIR Medicare repository-->
                <identifier>
                    <system value="urn:ietf:rfc:3986"/>
                    <value value="urn:uuid:475db616-dfd5-43f3-b935-9f582233a38d"/>
                </identifier>
                <status value="completed"/>
                <vaccineCode>
                    <coding>
                        <system
                            value="https://www.humanservices.gov.au/organisations/health-professionals/enablers/air-vaccine-code-formats"/>
                        <code value="ENGP"/>
                    </coding>
                    <text value="Engerix-B (paediatric)"/>
                </vaccineCode>
                <patient>
                    <reference value="urn:uuid:a08d6100-86db-41c2-a222-5680671749f4"/>
                    <identifier>
                        <type>
                            <coding>
                                <system value="http://terminology.hl7.org/CodeSystem/v2-0203"/>
                                <code value="NI"/>
                                <display value="National unique individual identifier"/>
                            </coding>
                            <text value="IHI"/>
                        </type>
                        <system value="http://ns.electronichealth.net.au/id/hi/ihi/1.0"/>
                        <value value="8003608833357361"/>
                    </identifier>
                </patient>
                <occurrenceDateTime value="1999-02-14"/>
                <primarySource value="true"/>
                <protocolApplied>
                    <targetDisease>
                        <text value="Hepatitis B"/>
                    </targetDisease>
                    <doseNumberPositiveInt value="1"/>
                </protocolApplied>
            </Immunization>
        </resource>
    </entry>
    <!--    IMMUNIZATION (air-infl-01)    -->
    <entry>
        <fullUrl value="urn:uuid:ab673757-9811-47d5-9ec1-f1451c5e295b"/>
        <resource>
            <Immunization>
                <id value="air-infl-01"/>
                <!--identifier for the AIR record from AIR Medicare repository-->
                <identifier>
                    <system value="urn:ietf:rfc:3986"/>
                    <value value="urn:uuid:475db616-dfd5-43f3-b935-9f582233a38d"/>
                </identifier>
                <status value="completed"/>
                <vaccineCode>
                    <coding>
                        <system
                            value="https://www.humanservices.gov.au/organisations/health-professionals/enablers/air-vaccine-code-formats"/>
                        <code value="PANVAX"/>
                    </coding>
                    <text value="Panvax"/>
                </vaccineCode>
                <patient>
                    <reference value="urn:uuid:a08d6100-86db-41c2-a222-5680671749f4"/>
                    <identifier>
                        <type>
                            <coding>
                                <system value="http://terminology.hl7.org/CodeSystem/v2-0203"/>
                                <code value="NI"/>
                                <display value="National unique individual identifier"/>
                            </coding>
                            <text value="IHI"/>
                        </type>
                        <system value="http://ns.electronichealth.net.au/id/hi/ihi/1.0"/>
                        <value value="8003608833357361"/>
                    </identifier>
                </patient>
                <occurrenceDateTime value="2020-03-01"/>
                <primarySource value="true"/>
                <protocolApplied>
                    <targetDisease>
                        <text value="Influenza"/>
                    </targetDisease>
                    <doseNumberPositiveInt value="1"/>
                </protocolApplied>
            </Immunization>
        </resource>
    </entry>
    <!--    IMMUNIZATION (air-infl-02)    -->
    <entry>
        <fullUrl value="urn:uuid:3bdcab6e-371c-4771-9902-d077d548536c"/>
        <resource>
            <Immunization>
                <id value="air-infl-02"/>
                <!--identifier for the AIR record from AIR Medicare repository-->
                <identifier>
                    <system value="urn:ietf:rfc:3986"/>
                    <value value="urn:uuid:475db616-dfd5-43f3-b935-9f582233a38d"/>
                </identifier>
                <status value="completed"/>
                <vaccineCode>
                    <coding>
                        <system
                            value="https://www.humanservices.gov.au/organisations/health-professionals/enablers/air-vaccine-code-formats"/>
                        <code value="PANVAX"/>
                    </coding>
                    <text value="Panvax"/>
                </vaccineCode>
                <patient>
                    <reference value="urn:uuid:a08d6100-86db-41c2-a222-5680671749f4"/>
                    <identifier>
                        <type>
                            <coding>
                                <system value="http://terminology.hl7.org/CodeSystem/v2-0203"/>
                                <code value="NI"/>
                                <display value="National unique individual identifier"/>
                            </coding>
                            <text value="IHI"/>
                        </type>
                        <system value="http://ns.electronichealth.net.au/id/hi/ihi/1.0"/>
                        <value value="8003608833357361"/>
                    </identifier>
                </patient>
                <occurrenceDateTime value="2021-03-01"/>
                <primarySource value="true"/>
                <protocolApplied>
                    <targetDisease>
                        <text value="Influenza"/>
                    </targetDisease>
                    <doseNumberPositiveInt value="1"/>
                </protocolApplied>
            </Immunization>
        </resource>
    </entry>
    <!--    IMMUNIZATION (air-infl-03)    -->
    <entry>
        <fullUrl value="urn:uuid:3d2d99de-a1fd-4536-b31b-19c9be798aa0"/>
        <resource>
            <Immunization>
                <id value="air-infl-03"/>
                <!--identifier for the AIR record from AIR Medicare repository-->
                <identifier>
                    <system value="urn:ietf:rfc:3986"/>
                    <value value="urn:uuid:475db616-dfd5-43f3-b935-9f582233a38d"/>
                </identifier>
                <status value="completed"/>
                <vaccineCode>
                    <coding>
                        <system
                            value="https://www.humanservices.gov.au/organisations/health-professionals/enablers/air-vaccine-code-formats"/>
                        <code value="PANVAX"/>
                    </coding>
                    <text value="Panvax"/>
                </vaccineCode>
                <patient>
                    <reference value="urn:uuid:a08d6100-86db-41c2-a222-5680671749f4"/>
                    <identifier>
                        <type>
                            <coding>
                                <system value="http://terminology.hl7.org/CodeSystem/v2-0203"/>
                                <code value="NI"/>
                                <display value="National unique individual identifier"/>
                            </coding>
                            <text value="IHI"/>
                        </type>
                        <system value="http://ns.electronichealth.net.au/id/hi/ihi/1.0"/>
                        <value value="8003608833357361"/>
                    </identifier>
                </patient>
                <occurrenceDateTime value="2022-03-01"/>
                <primarySource value="true"/>
                <protocolApplied>
                    <targetDisease>
                        <text value="Influenza"/>
                    </targetDisease>
                    <doseNumberPositiveInt value="1"/>
                </protocolApplied>
            </Immunization>
        </resource>
    </entry>
    <!--    OBSERVATION (air-covid-imm-status-01)    -->
    <entry>
        <fullUrl value="urn:uuid:c4e2881c-59e2-4a8d-b199-0e1f03cd2c0b"/>
        <resource>
            <Observation>
                <id value="air-covid-imm-status-01"/>
                <!--identifier for the AIR record from AIR Medicare repository-->
                <identifier>
                    <system value="urn:ietf:rfc:3986"/>
                    <value value="urn:uuid:475db616-dfd5-43f3-b935-9f582233a38d"/>
                </identifier>
                <status value="final"/>
                <code>
                    <coding>
                        <system
                            value="https://healthterminologies.gov.au/fhir/CodeSystem/nctis-data-components-1"/>
                        <code value="103.32029"/>
                        <display
                            value="Australian Immunisation Register COVID-19 Immunisation Status"/>
                    </coding>
                    <coding>
                        <system value="http://loinc.org"/>
                        <code value="97155-6"/>
                        <display value="SARS coronavirus 2 (COVID-19) immunization status"/>
                    </coding>
                </code>
                <subject>
                    <reference value="urn:uuid:a08d6100-86db-41c2-a222-5680671749f4"/>
                    <identifier>
                        <type>
                            <coding>
                                <system value="http://terminology.hl7.org/CodeSystem/v2-0203"/>
                                <code value="NI"/>
                                <display value="National unique individual identifier"/>
                            </coding>
                            <text value="IHI"/>
                        </type>
                        <system value="http://ns.electronichealth.net.au/id/hi/ihi/1.0"/>
                        <value value="8003608833357361"/>
                    </identifier>
                </subject>
                <effectiveDateTime value="2022-02-15T01:02:00+10:00"/>
                <performer>
                    <reference value="urn:uuid:d85721f7-df00-4c2f-b99c-5b001c94e6e5"/>
                    <identifier>
                        <type>
                            <coding>
                                <system value="http://terminology.hl7.org.au/CodeSystem/v2-0203"/>
                                <code value="NOI"/>
                                <display value="National Organisation Identifier"/>
                            </coding>
                            <text value="PAI-O"/>
                        </type>
                        <system value="http://ns.electronichealth.net.au/id/pcehr/paio/1.0"/>
                        <value value="8003640001000036"/>
                    </identifier>
                </performer>
                <valueCodeableConcept>
                    <text value="This individual has received all required COVID-19 vaccines."/>
                </valueCodeableConcept>
            </Observation>
        </resource>
    </entry>
    <!--    EXPLANATIONOFBENEFIT (mbs-02)    -->
    <entry>
        <fullUrl value="urn:uuid:e821c52c-889d-4ead-89ee-99eb9561e91e"/>
        <resource>
            <ExplanationOfBenefit>
                <id value="mbs-02"/>
                <!--identifier for the MBR record from Medicare repository-->
                <identifier>
                    <system value="urn:ietf:rfc:3986"/>
                    <value value="urn:uuid:79a8b5a5-1631-4eec-b031-815156c9a47b"/>
                </identifier>
                <status value="active"/>
                <type>
                    <coding>
                        <system value="http://terminology.hl7.org/CodeSystem/claim-type"/>
                        <code value="professional"/>
                    </coding>
                </type>
                <subType>
                    <coding>
                        <system
                            value="https://healthterminologies.gov.au/fhir/CodeSystem/australian-benefit-payment-category-1"/>
                        <code value="mbs"/>
                    </coding>
                </subType>
                <use value="claim"/>
                <patient>
                    <reference value="urn:uuid:a08d6100-86db-41c2-a222-5680671749f4"/>
                    <identifier>
                        <type>
                            <coding>
                                <system value="http://terminology.hl7.org/CodeSystem/v2-0203"/>
                                <code value="NI"/>
                                <display value="National unique individual identifier"/>
                            </coding>
                            <text value="IHI"/>
                        </type>
                        <system value="http://ns.electronichealth.net.au/id/hi/ihi/1.0"/>
                        <value value="8003608833357361"/>
                    </identifier>
                </patient>
                <created value="2017-12-04"/>
                <insurer>
                    <display value="Australian Government Department of Health"/>
                </insurer>
                <provider>
                    <identifier>
                        <type>
                            <coding>
                                <system value="http://terminology.hl7.org/CodeSystem/v2-0203"/>
                                <code value="NPI"/>
                                <display value="National provider identifier"/>
                            </coding>
                            <text value="HPI-I"/>
                        </type>
                        <system value="http://ns.electronichealth.net.au/id/hi/hpii/1.0"/>
                        <value value="8003614900041243"/>
                    </identifier>
                    <display value="Dr. Jeong-Hoon Kim"/>
                </provider>
                <outcome value="complete"/>
                <insurance>
                    <focal value="true"/>
                    <coverage>
                        <identifier>
                            <type>
                                <coding>
                                    <system value="http://terminology.hl7.org/CodeSystem/v2-0203"/>
                                    <code value="MC"/>
                                </coding>
                                <text value="Medicare Number"/>
                            </type>
                            <system value="http://ns.electronichealth.net.au/id/medicare-number"/>
                            <value value="3951032981"/>
                        </identifier>
                    </coverage>
                </insurance>
                <item>
                    <sequence value="1"/>
                    <category>
                        <coding>
                            <system
                                value="https://healthterminologies.gov.au/fhir/CodeSystem/australian-benefit-payment-category-1"/>
                            <code value="mbs"/>
                            <display value="MBS"/>
                        </coding>
                        <text value="Medicare Benefits Schedule"/>
                    </category>
                    <productOrService>
                        <coding>
                            <system value="urn:oid:1.2.36.1.2001.1005.21"/>
                            <code value="30185"/>
                            <display
                                value="Palmar or plantar warts (10 or more), definitive removal of, excluding ablative methods alone, not being a service to which item 30186 or 30187 applies (Anaes.)"
                            />
                        </coding>
                    </productOrService>
                    <servicedDate value="2017-12-04"/>
                </item>
            </ExplanationOfBenefit>
        </resource>
    </entry>
    <!--    EXPLANATIONOFBENEFIT (mbs-03)    -->
    <entry>
        <fullUrl value="urn:uuid:3a3aebc9-a95c-4821-9e76-d0802f77d62c"/>
        <resource>
            <ExplanationOfBenefit>
                <id value="mbs-03"/>
                <!--identifier for the MBR record from Medicare repository-->
                <identifier>
                    <system value="urn:ietf:rfc:3986"/>
                    <value value="urn:uuid:fbaf3ef9-6e74-44d2-8057-3ceabb1f2bde"/>
                </identifier>
                <status value="active"/>
                <type>
                    <coding>
                        <system value="http://terminology.hl7.org/CodeSystem/claim-type"/>
                        <code value="professional"/>
                    </coding>
                </type>
                <subType>
                    <coding>
                        <system
                            value="https://healthterminologies.gov.au/fhir/CodeSystem/australian-benefit-payment-category-1"/>
                        <code value="mbs"/>
                    </coding>
                </subType>
                <use value="claim"/>
                <patient>
                    <reference value="urn:uuid:a08d6100-86db-41c2-a222-5680671749f4"/>
                    <identifier>
                        <type>
                            <coding>
                                <system value="http://terminology.hl7.org/CodeSystem/v2-0203"/>
                                <code value="NI"/>
                                <display value="National unique individual identifier"/>
                            </coding>
                            <text value="IHI"/>
                        </type>
                        <system value="http://ns.electronichealth.net.au/id/hi/ihi/1.0"/>
                        <value value="8003608833357361"/>
                    </identifier>
                </patient>
                <created value="2018-12-16"/>
                <insurer>
                    <display value="Australian Government Department of Health"/>
                </insurer>
                <provider>
                    <identifier>
                        <type>
                            <coding>
                                <system value="http://terminology.hl7.org/CodeSystem/v2-0203"/>
                                <code value="NPI"/>
                                <display value="National provider identifier"/>
                            </coding>
                            <text value="HPI-I"/>
                        </type>
                        <system value="http://ns.electronichealth.net.au/id/hi/hpii/1.0"/>
                        <value value="8003614900041243"/>
                    </identifier>
                    <display value="Dr. Jeong-Hoon Kim"/>
                </provider>
                <outcome value="complete"/>
                <insurance>
                    <focal value="true"/>
                    <coverage>
                        <identifier>
                            <type>
                                <coding>
                                    <system value="http://terminology.hl7.org/CodeSystem/v2-0203"/>
                                    <code value="MC"/>
                                </coding>
                                <text value="Medicare Number"/>
                            </type>
                            <system value="http://ns.electronichealth.net.au/id/medicare-number"/>
                            <value value="3951032981"/>
                        </identifier>
                    </coverage>
                </insurance>
                <item>
                    <sequence value="1"/>
                    <category>
                        <coding>
                            <system
                                value="https://healthterminologies.gov.au/fhir/CodeSystem/australian-benefit-payment-category-1"/>
                            <code value="mbs"/>
                        </coding>
                    </category>
                    <productOrService>
                        <coding>
                            <system value="urn:oid:1.2.36.1.2001.1005.21"/>
                            <code value="30191"/>
                        </coding>
                    </productOrService>
                    <servicedDate value="2018-12-16"/>
                </item>
            </ExplanationOfBenefit>
        </resource>
    </entry>
    <!--    EXPLANATIONOFBENEFIT (pbs-01)    -->
    <entry>
        <fullUrl value="urn:uuid:bdc3be54-da77-41a9-a489-58387e13c94e"/>
        <resource>
            <ExplanationOfBenefit>
                <id value="pbs-01"/>
                <contained>
                    <MedicationRequest>
                        <id value="claim-pbs-01"/>
                        <status value="unknown"/>
                        <intent value="order"/>
                        <medicationReference>
                            <reference value="#cephalexin-01"/>
                        </medicationReference>
                        <subject>
                            <reference value="urn:uuid:a08d6100-86db-41c2-a222-5680671749f4"/>
                            <identifier>
                                <type>
                                    <coding>
                                        <system
                                            value="http://terminology.hl7.org/CodeSystem/v2-0203"/>
                                        <code value="NI"/>
                                        <display value="National unique individual identifier"/>
                                    </coding>
                                    <text value="IHI"/>
                                </type>
                                <system value="http://ns.electronichealth.net.au/id/hi/ihi/1.0"/>
                                <value value="8003608833357361"/>
                            </identifier>
                        </subject>
                        <authoredOn value="2020-01-15"/>
                        <dispenseRequest>
                            <numberOfRepeatsAllowed value="1"/>
                            <quantity>
                                <value value="500"/>
                                <unit value="tablet"/>
                            </quantity>
                        </dispenseRequest>
                    </MedicationRequest>
                </contained>
                <contained>
                    <Medication>
                        <id value="cephalexin-01"/>
                        <code>
                            <coding>
                                <system value="urn:oid:1.2.36.1.2001.1005.22"/>
                                <code value="03119E"/>
                                <display value="cephalexin 500 mg capsule, 20"/>
                            </coding>
                        </code>
                        <manufacturer>
                            <identifier>
                                <system value="http://pbs.gov.au/code/manufacturer"/>
                                <value value="MM"/>
                            </identifier>
                        </manufacturer>
                    </Medication>
                </contained>
                <!--identifier for the PBR record from Medicare repository-->
                <identifier>
                    <system value="urn:ietf:rfc:3986"/>
                    <value value="urn:uuid:296dcbd7-d763-4ecf-aa78-523bcc11ecda"/>
                </identifier>
                <status value="active"/>
                <type>
                    <coding>
                        <system value="http://terminology.hl7.org/CodeSystem/claim-type"/>
                        <code value="pharmacy"/>
                    </coding>
                </type>
                <subType>
                    <coding>
                        <system
                            value="https://healthterminologies.gov.au/fhir/CodeSystem/australian-benefit-payment-category-1"/>
                        <code value="pbs"/>
                    </coding>
                </subType>
                <use value="claim"/>
                <patient>
                    <reference value="urn:uuid:a08d6100-86db-41c2-a222-5680671749f4"/>
                    <identifier>
                        <type>
                            <coding>
                                <system value="http://terminology.hl7.org/CodeSystem/v2-0203"/>
                                <code value="NI"/>
                                <display value="National unique individual identifier"/>
                            </coding>
                            <text value="IHI"/>
                        </type>
                        <system value="http://ns.electronichealth.net.au/id/hi/ihi/1.0"/>
                        <value value="8003608833357361"/>
                    </identifier>
                </patient>
                <created value="2020-01-16"/>
                <insurer>
                    <display value="Australian Government Department of Health"/>
                </insurer>
                <provider>
                    <identifier>
                        <type>
                            <coding>
                                <system value="http://terminology.hl7.org/CodeSystem/v2-0203"/>
                                <code value="NPI"/>
                                <display value="National provider identifier"/>
                            </coding>
                            <text value="HPI-I"/>
                        </type>
                        <system value="http://ns.electronichealth.net.au/id/hi/hpii/1.0"/>
                        <value value="8003611566708354"/>
                    </identifier>
                    <display
                        value="Mr. Representative Pharmacist at Test Org -DigitalHealth 6 Pharmacy"
                    />
                </provider>
                <prescription>
                    <reference value="#claim-pbs-01"/>
                </prescription>
                <outcome value="complete"/>
                <insurance>
                    <focal value="true"/>
                    <coverage>
                        <identifier>
                            <type>
                                <coding>
                                    <system value="http://terminology.hl7.org/CodeSystem/v2-0203"/>
                                    <code value="MC"/>
                                </coding>
                                <text value="Medicare Number"/>
                            </type>
                            <system value="http://ns.electronichealth.net.au/id/medicare-number"/>
                            <value value="3951032981"/>
                        </identifier>
                    </coverage>
                </insurance>
                <item>
                    <sequence value="1"/>
                    <category>
                        <coding>
                            <system
                                value="https://healthterminologies.gov.au/fhir/CodeSystem/australian-benefit-payment-category-1"/>
                            <code value="pbs"/>
                            <display value="PBS"/>
                        </coding>
                    </category>
                    <productOrService>
                        <coding>
                            <system value="urn:oid:1.2.36.1.2001.1005.22"/>
                            <code value="03119E"/>
                            <display value="cephalexin 500 mg capsule, 20"/>
                        </coding>
                    </productOrService>
                    <servicedDate value="2020-01-16"/>
                </item>
            </ExplanationOfBenefit>
        </resource>
    </entry>
    <!--    EXPLANATIONOFBENEFIT (pbs-02)    -->
    <entry>
        <fullUrl value="urn:uuid:d8f3afee-b3f7-4768-964c-134178703836"/>
        <resource>
            <ExplanationOfBenefit>
                <id value="pbs-02"/>
                <contained>
                    <MedicationRequest>
                        <id value="claim-pbs-02"/>
                        <status value="unknown"/>
                        <intent value="order"/>
                        <medicationReference>
                            <reference value="#cephalexin-01"/>
                        </medicationReference>
                        <subject>
                            <reference value="urn:uuid:a08d6100-86db-41c2-a222-5680671749f4"/>
                            <identifier>
                                <type>
                                    <coding>
                                        <system
                                            value="http://terminology.hl7.org/CodeSystem/v2-0203"/>
                                        <code value="NI"/>
                                        <display value="National unique individual identifier"/>
                                    </coding>
                                    <text value="IHI"/>
                                </type>
                                <system value="http://ns.electronichealth.net.au/id/hi/ihi/1.0"/>
                                <value value="8003608833357361"/>
                            </identifier>
                        </subject>
                        <authoredOn value="2020-01-15"/>
                        <dispenseRequest>
                            <numberOfRepeatsAllowed value="1"/>
                            <quantity>
                                <value value="500"/>
                                <unit value="tablet"/>
                            </quantity>
                        </dispenseRequest>
                    </MedicationRequest>
                </contained>
                <contained>
                    <Medication>
                        <id value="cephalexin-01"/>
                        <code>
                            <coding>
                                <system value="urn:oid:1.2.36.1.2001.1005.22"/>
                                <code value="03119E"/>
                                <display value="cephalexin 500 mg capsule, 20"/>
                            </coding>
                        </code>
                        <manufacturer>
                            <identifier>
                                <system value="http://pbs.gov.au/code/manufacturer"/>
                                <value value="MM"/>
                            </identifier>
                        </manufacturer>
                    </Medication>
                </contained>
                <!--identifier for the PBR record from Medicare repository-->
                <identifier>
                    <system value="urn:ietf:rfc:3986"/>
                    <value value="urn:uuid:73f7a30b-add3-4673-a4e9-65b0d8670a36"/>
                </identifier>
                <status value="active"/>
                <type>
                    <coding>
                        <system value="http://terminology.hl7.org/CodeSystem/claim-type"/>
                        <code value="pharmacy"/>
                    </coding>
                </type>
                <subType>
                    <coding>
                        <system
                            value="https://healthterminologies.gov.au/fhir/CodeSystem/australian-benefit-payment-category-1"/>
                        <code value="pbs"/>
                    </coding>
                </subType>
                <use value="claim"/>
                <patient>
                    <reference value="urn:uuid:a08d6100-86db-41c2-a222-5680671749f4"/>
                    <identifier>
                        <type>
                            <coding>
                                <system value="http://terminology.hl7.org/CodeSystem/v2-0203"/>
                                <code value="NI"/>
                                <display value="National unique individual identifier"/>
                            </coding>
                            <text value="IHI"/>
                        </type>
                        <system value="http://ns.electronichealth.net.au/id/hi/ihi/1.0"/>
                        <value value="8003608833357361"/>
                    </identifier>
                </patient>
                <created value="2020-02-16"/>
                <insurer>
                    <display value="Australian Government Department of Health"/>
                </insurer>
                <provider>
                    <identifier>
                        <type>
                            <coding>
                                <system value="http://terminology.hl7.org/CodeSystem/v2-0203"/>
                                <code value="NPI"/>
                                <display value="National provider identifier"/>
                            </coding>
                            <text value="HPI-I"/>
                        </type>
                        <system value="http://ns.electronichealth.net.au/id/hi/hpii/1.0"/>
                        <value value="8003611566708354"/>
                    </identifier>
                    <display
                        value="Mr. Representative Pharmacist at Test Org -DigitalHealth 6 Pharmacy"
                    />
                </provider>
                <prescription>
                    <reference value="#claim-pbs-02"/>
                </prescription>
                <outcome value="complete"/>
                <insurance>
                    <focal value="true"/>
                    <coverage>
                        <identifier>
                            <type>
                                <coding>
                                    <system value="http://terminology.hl7.org/CodeSystem/v2-0203"/>
                                    <code value="MC"/>
                                </coding>
                                <text value="Medicare Number"/>
                            </type>
                            <system value="http://ns.electronichealth.net.au/id/medicare-number"/>
                            <value value="3951032981"/>
                        </identifier>
                    </coverage>
                </insurance>
                <item>
                    <sequence value="1"/>
                    <category>
                        <coding>
                            <system
                                value="https://healthterminologies.gov.au/fhir/CodeSystem/australian-benefit-payment-category-1"/>
                            <code value="pbs"/>
                            <display value="PBS"/>
                        </coding>
                    </category>
                    <productOrService>
                        <coding>
                            <system value="urn:oid:1.2.36.1.2001.1005.22"/>
                            <code value="03119E"/>
                            <display value="cephalexin 500 mg capsule, 20"/>
                        </coding>
                    </productOrService>
                    <servicedDate value="2020-02-16"/>
                </item>
            </ExplanationOfBenefit>
        </resource>
    </entry>
</Bundle>
