<?xml version="1.0" encoding="UTF-8"?>
<Bundle xmlns="http://hl7.org/fhir">
    <id value="phs-doc-01"/>
    <meta>
        <lastUpdated value="2022-11-28T11:01:00+10:00"/>
    </meta>
    <identifier>
        <system value="urn:ietf:rfc:3986"/>
        <value value="urn:uuid:6ab215b6-6b78-46bb-bb0f-bf7e2fd0628b"/>
    </identifier>
    <type value="document"/>
    <timestamp value="2022-11-28T11:01:00+10:00"/>
    <!--    COMPOSITION    -->
    <entry>
        <fullUrl value="urn:uuid:6f5af3db-b2ab-4b74-90d5-39c20a662b0d"/>
        <resource>
            <Composition>
                <id value="phs-01"/>
                <language value="en-AU"/>
                <identifier>
                    <system value="urn:ietf:rfc:3986"/>
                    <value value="urn:oid:2.25.320090414317418051877665573694312012507"/>
                </identifier>
                <status value="final"/>
                <type>
                    <coding>
                        <system
                            value="https://healthterminologies.gov.au/fhir/CodeSystem/nctis-data-components-1"/>
                        <code value="100.16685"/>
                    </coding>
                    <text value="Personal Health Summary"/>
                </type>
                <category>
                    <coding>
                        <system
                            value="https://healthterminologies.gov.au/fhir/CodeSystem/nctis-data-components-1"/>
                        <code value="100.16685"/>
                    </coding>
                </category>
                <subject>
                    <reference value="urn:uuid:1b34e738-7e39-40e1-9619-2247550a8ead"/>
                    <identifier>
                        <type>
                            <coding>
                                <system value="http://terminology.hl7.org/CodeSystem/v2-0203"/>
                                <code value="NI"/>
                                <display value="National unique individual identifier"/>
                            </coding>
                            <text value="IHI"/>
                        </type>
                        <system value="http://ns.electronichealth.net.au/id/hi/ihi/1.0"/>
                        <value value="8003608000228445"/>
                    </identifier>
                </subject>
                <date value="2021-09-21"/>
                <author>
                    <reference value="urn:uuid:1b34e738-7e39-40e1-9619-2247550a8ead"/>
                    <identifier>
                        <type>
                            <coding>
                                <system value="http://terminology.hl7.org/CodeSystem/v2-0203"/>
                                <code value="NI"/>
                                <display value="National unique individual identifier"/>
                            </coding>
                            <text value="IHI"/>
                        </type>
                        <system value="http://ns.electronichealth.net.au/id/hi/ihi/1.0"/>
                        <value value="8003608000228445"/>
                    </identifier>
                </author>
                <title value="Mrs. Bonny Goodwin - Personal Health Summary"/>
                <custodian>
                    <reference value="urn:uuid:68e3c0c8-6346-4d27-a3b7-97841221dcbe"/>
                    <identifier>
                        <type>
                            <coding>
                                <system value="http://terminology.hl7.org.au/CodeSystem/v2-0203"/>
                                <code value="NOI"/>
                                <display value="National Organisation Identifier"/>
                            </coding>
                            <text value="PAI-O"/>
                        </type>
                        <system value="http://ns.electronichealth.net.au/id/pcehr/paio/1.0"/>
                        <value value="8003640001000036"/>
                    </identifier>
                </custodian>
                <section>
                    <title value="Allergies"/>
                    <code>
                        <coding>
                            <system
                                value="https://healthterminologies.gov.au/fhir/CodeSystem/nctis-data-components-1"/>
                            <code value="101.20113"/>
                        </coding>
                        <coding>
                            <system
                                value="http://loinc.org"/>
                            <code value="48765-2"/>
                        </coding>
                    </code>
                    <entry>
                        <reference value="urn:uuid:6bfb46ad-1084-4496-8622-5ef86bf19ad9"/>
                    </entry>
                    <entry>
                        <reference value="urn:uuid:d7f804e8-c389-41cf-8815-50e618345943"/>
                    </entry>
                </section>
                <section>
                    <title value="Current Medicines"/>
                    <code>
                        <coding>
                            <system
                                value="https://healthterminologies.gov.au/fhir/CodeSystem/nctis-data-components-1"/>
                            <code value="101.32009"/>
                        </coding>
                    </code>
                    <entry>
                        <reference value="urn:uuid:f3a59ff9-b205-41ef-86b3-f38445428e84"/>
                    </entry>
                </section>
            </Composition>
        </resource>
    </entry>
    <!--    PATIENT    -->
    <entry>
        <fullUrl value="urn:uuid:1b34e738-7e39-40e1-9619-2247550a8ead"/>
        <resource>
            <Patient>
                <id value="hi-testdata-goodwin-bonny"/>
                <identifier>
                    <extension url="http://hl7.org.au/fhir/StructureDefinition/ihi-status">
                        <valueCoding>
                            <system value="https://healthterminologies.gov.au/fhir/CodeSystem/ihi-status-1"/>
                            <code value="active"/>
                            <display value="Active"/>
                        </valueCoding>
                    </extension>
                    <extension url="http://hl7.org.au/fhir/StructureDefinition/ihi-record-status">
                        <valueCoding>
                            <system value="https://healthterminologies.gov.au/fhir/CodeSystem/ihi-record-status-1"/>
                            <code value="verified"/>
                            <display value="Verified"/>
                        </valueCoding>
                    </extension>
                    <use value="official"/>
                    <type>
                        <coding>
                            <system value="http://terminology.hl7.org/CodeSystem/v2-0203"/>
                            <code value="NI"/>
                            <display value="National unique individual identifier"/>
                        </coding>
                        <text value="IHI"/>
                    </type>
                    <system value="http://ns.electronichealth.net.au/id/hi/ihi/1.0"/>
                    <value value="8003608000228445"/>
                </identifier>
                <identifier>
                    <type>
                        <coding>
                            <system value="http://terminology.hl7.org/CodeSystem/v2-0203"/>
                            <code value="MC"/>
                            <display value="Patient's Medicare number"/>
                        </coding>
                        <text value="Medicare Number"/>
                    </type>
                    <system value="http://ns.electronichealth.net.au/id/medicare-number"/>
                    <value value="3951032981"/>
                    <period>
                        <end value="2024-08"/>
                    </period>
                </identifier>
                <name>
                    <use value="official"/>
                    <family value="Goodwin"/>
                    <given value="Bonny"/>
                    <prefix value="Mrs."/>
                </name>
                <gender value="female"/>    
                <birthDate value="1986-11-13"/>
                <address>
                    <text value="108 Museum Qy AVALON VIC 3212"/>
                </address>
                <maritalStatus>
                    <coding>
                        <system value="http://terminology.hl7.org/CodeSystem/v3-MaritalStatus"/>
                        <code value="M"/>
                        <display value="Married"/>
                    </coding>
                    <text value="Married"/>
                </maritalStatus>
            </Patient>
        </resource>
    </entry>
    <!--    ALLERGYINTOLERANCE (nofood-01) -->
    <entry>
        <fullUrl value="urn:uuid:6bfb46ad-1084-4496-8622-5ef86bf19ad9"/>
        <resource>
            <AllergyIntolerance>
                <id value="nofood-01"/>
                <clinicalStatus>
                    <coding>
                        <system value="http://terminology.hl7.org/CodeSystem/allergyintolerance-clinical"/>
                        <code value="active"/>
                        <display value="Active"/>
                    </coding>
                </clinicalStatus>
                <verificationStatus>
                    <coding>
                        <system value="http://terminology.hl7.org/CodeSystem/allergyintolerance-verification"/>
                        <code value="unconfirmed"/>
                        <display value="Unconfirmed"/>
                    </coding>
                </verificationStatus>
                <code>
                    <coding>
                        <system value="http://snomed.info/sct"/>
                        <code value="429625007"/>
                        <display value="No known food allergy"/>
                    </coding>
                    <text value="No food allergies"/>
                </code>
                <patient>
                    <reference value="urn:uuid:1b34e738-7e39-40e1-9619-2247550a8ead"/>
                    <identifier>
                        <type>
                            <coding>
                                <system value="http://terminology.hl7.org/CodeSystem/v2-0203"/>
                                <code value="NI"/>
                                <display value="National unique individual identifier"/>
                            </coding>
                            <text value="IHI"/>
                        </type>
                        <system value="http://ns.electronichealth.net.au/id/hi/ihi/1.0"/>
                        <value value="8003608000228445"/>
                    </identifier>
                </patient>
                <recorder>
                    <reference value="urn:uuid:1b34e738-7e39-40e1-9619-2247550a8ead"/>
                </recorder>
                <asserter>
                    <reference value="urn:uuid:1b34e738-7e39-40e1-9619-2247550a8ead"/>
                </asserter>
            </AllergyIntolerance>
        </resource>
    </entry>
    <!--    ALLERGYINTOLERANCE (sulfonamide-01)    -->
    <entry>
        <fullUrl value="urn:uuid:d7f804e8-c389-41cf-8815-50e618345943"/>
        <resource>
            <AllergyIntolerance>
                <id value="sulfonamide-01"/>
                <clinicalStatus>
                    <coding>
                        <system value="http://terminology.hl7.org/CodeSystem/allergyintolerance-clinical"/>
                        <code value="active"/>
                    </coding>
                </clinicalStatus>
                <verificationStatus>
                    <coding>
                        <system value="http://terminology.hl7.org/CodeSystem/allergyintolerance-verification"/>
                        <code value="confirmed"/>
                    </coding>
                </verificationStatus>
                <category value="medication"/>
                <criticality value="high"/>
                <code>
                    <coding>
                        <system value="http://snomed.info/sct"/>
                        <code value="763875007"/>
                        <display value="Sulfonamide-containing product"/>
                    </coding>
                    <text value="sulfonamide antibacterial"/>
                </code>
                <patient>
                    <reference value="urn:uuid:1b34e738-7e39-40e1-9619-2247550a8ead"/>
                    <identifier>
                        <type>
                            <coding>
                                <system value="http://terminology.hl7.org/CodeSystem/v2-0203"/>
                                <code value="NI"/>
                                <display value="National unique individual identifier"/>
                            </coding>
                            <text value="IHI"/>
                        </type>
                        <system value="http://ns.electronichealth.net.au/id/hi/ihi/1.0"/>
                        <value value="8003608000228445"/>
                    </identifier>
                </patient>
                <recorder>
                    <reference value="urn:uuid:1b34e738-7e39-40e1-9619-2247550a8ead"/>
                </recorder>
                <asserter>
                    <reference value="urn:uuid:1b34e738-7e39-40e1-9619-2247550a8ead"/>
                </asserter>
                <reaction>
                    <manifestation>
                        <coding>
                            <system value="http://snomed.info/sct"/>
                            <code value="271807003"/>
                            <display value="skin rash"/>
                        </coding>
                        <text value="skin rash"/>
                    </manifestation>
                    <severity value="mild"/>
                </reaction>
            </AllergyIntolerance>
        </resource>
    </entry>
    <!--    ORGANIZATION (mhr-operator)    -->
    <entry>
        <fullUrl value="urn:uuid:68e3c0c8-6346-4d27-a3b7-97841221dcbe"/>
        <resource>
            <Organization>
                <id value="mhr-operator"/>
                <identifier>
                    <type>
                        <coding>
                            <system value="http://terminology.hl7.org.au/CodeSystem/v2-0203"/>
                            <code value="NOI"/>
                            <display value="National Organisation Identifier"/>
                        </coding>
                        <text value="PAI-O"/>
                    </type>
                    <system value="http://ns.electronichealth.net.au/id/pcehr/paio/1.0"/>
                    <value value="8003640001000036"/>
                </identifier>
                <name value="My Health Record system operator"/>
            </Organization>
        </resource>
    </entry>
    <!--    OBSERVATION (no-current-meds-01)    -->
    <entry>
        <fullUrl value="urn:uuid:f3a59ff9-b205-41ef-86b3-f38445428e84"/>
        <resource>
            <Observation>
                <id value="no-current-meds-01"/>
                <status value="final"/>
                <!--    TBD - Determine appropriate category for observations of this nature    -->
                <category>
                    <coding>
                        <system value="http://snomed.info/sct"/>
                        <code value="365854008"/>
                        <display value="History finding"/>
                    </coding>
                </category>
                <code>
                    <coding>
                        <system value="http://terminology.hl7.org/CodeSystem/v3-ActCode"/>
                        <code value="ASSERTION"/>
                        <display value="Assertion"/>
                    </coding>
                </code>
                <subject>
                    <reference value="urn:uuid:1b34e738-7e39-40e1-9619-2247550a8ead"/>
                    <identifier>
                        <type>
                            <coding>
                                <system value="http://terminology.hl7.org/CodeSystem/v2-0203"/>
                                <code value="NI"/>
                                <display value="National unique individual identifier"/>
                            </coding>
                            <text value="IHI"/>
                        </type>
                        <system value="http://ns.electronichealth.net.au/id/hi/ihi/1.0"/>
                        <value value="8003608000228445"/>
                    </identifier>
                </subject>
                <effectiveDateTime value="2021-09-21"/>
                <performer>
                    <reference value="urn:uuid:1b34e738-7e39-40e1-9619-2247550a8ead"/>
                </performer>
                <valueCodeableConcept>
                    <coding>
                        <system value="http://snomed.info/sct"/>
                        <code value="1234391000168107"/>
                        <display value="No known current medicines"/>
                    </coding>
                </valueCodeableConcept>
            </Observation>
        </resource>
    </entry>
</Bundle>
