<?xml version="1.0" encoding="UTF-8"?>
<Bundle xmlns="http://hl7.org/fhir">
    <id value="report-covid-01"/>
    <meta>
        <lastUpdated value="2022-03-17T11:46:00+10:00"/>
        <profile value="http://ns.electronichealth.net.au/fhir/StructureDefinition/dh-bundle-payload-1"/>
    </meta>
    <identifier>
        <system value="urn:ietf:rfc:3986"/>
        <value value="urn:uuid:b487469d-810c-40ae-b5a9-c0beb9001c9f"/>
    </identifier>
    <type value="collection"/>
    <timestamp value="2022-03-17T11:46:00+10:00"/>
    <entry>
        <fullUrl value="urn:uuid:59033ee7-1950-4a04-abb3-6a232d5f62fd"/>
        <resource>
            <DiagnosticReport>
                <id value="covid-01"/>
                <meta>
                    <profile value="http://ns.electronichealth.net.au/fhir/StructureDefinition/dh-diagnosticreport-path-1"/>
                </meta>
                <language value="en-AU"/>
                <text>
                    <status value="generated"/>
                    <div xmlns="http://www.w3.org/1999/xhtml" lang="en-AU">
                        <table
                            style="border-collapse:collapse;border-spacing:0;width:100%;background-color:#000000">
                            <tr>
                                <th
                                    style="padding-top: 40px;
                                    vertical-align: top;
                                    text-align: center;
                                    margin 0px;
                                    font-size: 20px;
                                    font-family: Helvetica;
                                    color: #FFFFFF;
                                    font-weight: bold;
                                    word-wrap: break-word;"
                                    colspan="9">Pathology Report</th>
                            </tr>
                            <tr>
                                <td
                                    style="vertical-align: top;
                                    text-align: center;
                                    margin 0px;
                                    font-size: 15px;
                                    font-family: Helvetica;
                                    color: #FFFFFF;
                                    font-weight: bold;"
                                    colspan="9">15 Feb 2021 12:00</td>
                            </tr>
                            <tr>
                                <td
                                    style="display: inline; 
                                    margin-right: 20px; 
                                    font-size: 13px;
                                    color: #FFFFFF;"
                                    >Mrs. Anne <span class="bold">THOMPSON</span></td>
                                <td
                                    style="display: inline;
                                    font-size: 11px;
                                    color: #FFFFFF;"
                                    >DoB</td>
                                <td
                                    style="margin-left: 0px;
                                    display: inline;
                                    font-size: 11px;
                                    margin-right: 30px;
                                    color: #FFFFFF;"
                                    >11 OCT 1978</td>
                                <td
                                    style="display: inline;
                                    font-size: 11px;
                                    color: #FFFFFF;"
                                    >GENDER</td>
                                <td
                                    style="margin-left: 0px;
                                    display: inline;
                                    font-size: 11px;
                                    margin-right: 30px;
                                    color: #FFFFFF;"
                                    >Female</td>
                                <td
                                    style="display: inline;
                                    font-size: 11px;
                                    color: #FFFFFF;"
                                    >IHI</td>
                                <td
                                    style="margin-left: 0px;
                                    display: inline;
                                    font-size: 11px;
                                    margin-right: 30px;
                                    color: #FFFFFF;"
                                    >8003 6080 0022 8437</td>
                                <td
                                    style="display: inline;
                        font-size: 11px;
                        color: #FFFFFF;"
                                    >MRN</td>
                                <td
                                    style="margin-left: 0px;
                        display: inline;
                        font-size: 11px;
                        margin-right: 30px;
                        color: #FFFFFF;"
                                    >123456</td>
                                <td
                                    style="display: inline;
                                    font-size: 11px;
                                    color: #FFFFFF;"
                                    >INDIGENOUS STATUS</td>
                                <td
                                    style="margin-left: 0px;
                                    display: inline;
                                    font-size: 11px;
                                    margin-right: 30px;
                                    color: #FFFFFF;
                                    word-wrap: break-word;"
                                    >Aboriginal but not Torres Strait Islander origin</td>
                            </tr>
                        </table>
                        <table style="width:100%">
                            <tbody>
                                <tr>
                                    <td style="width:50%">
                                        <table>
                                            <thead>
                                                <tr>
                                                  <th
                                                  style="padding-top: 15px;
                                                        vertical-align: top;
                                                        text-align: center;
                                                        margin 0px;
                                                        font-family: Helvetica;
                                                        font-size:14px;
                                                        font-weight: bold;
                                                        text-decoration: underline;
                                                        text-align: left;
                                                        word-wrap: break-word;"
                                                  colspan="2">Request Details</th>
                                                </tr>
                                            </thead>
                                            <tbody>
                                                <tr>
                                                  <td>Dr Greg Algregster (Algregster Medical Center
                                                  QLD)</td>
                                                </tr>
                                                <tr>
                                                  <td style="font-weight: bold;">Order
                                                  Identifier:</td>
                                                  <td>123451</td>
                                                </tr>
                                                <tr>
                                                  <td style="font-weight: bold;">Test Ordered:</td>
                                                  <td>2019-Novel Coronavirus PCR</td>
                                                </tr>
                                            </tbody>
                                        </table>
                                    </td>
                                    <td>
                                        <table>
                                            <thead>
                                                <tr>
                                                  <th
                                                  style="padding-top: 15px;
                                                        vertical-align: top;
                                                        text-align: center;
                                                        margin 0px;
                                                        font-family: Helvetica;
                                                        font-size:14px;
                                                        font-weight: bold;
                                                        text-decoration: underline;
                                                        text-align: left;
                                                        word-wrap: break-word;"
                                                  colspan="2">Author</th>
                                                </tr>
                                            </thead>
                                            <tbody>
                                                <tr>
                                                  <td>Dr Adam Meyer (Microbiologist) (HPI-I:
                                                  8003619900041630)</td>
                                                </tr>
                                                <tr>
                                                  <td>75 Hampden St, DOOMBEN, QLD, 4007</td>
                                                </tr>
                                                <tr>
                                                  <td>(07) 7010 3453</td>
                                                </tr>
                                                <tr>
                                                  <td/>
                                                </tr>
                                                <tr>
                                                  <td>Doomben Pathology QLD (HPI-O:
                                                  8003623233366565) (NATA: 100101)</td>
                                                </tr>
                                                <tr>
                                                  <td>75 Hampden St, DOOMBEN, QLD, 4007</td>
                                                </tr>
                                                <tr>
                                                  <td>(07) 5550 3427
                                                  info@doombenpathlabs.example.com</td>
                                                </tr>
                                            </tbody>
                                        </table>
                                    </td>
                                </tr>
                                <tr>
                                    <td>
                                        <table>
                                            <thead>
                                                <tr>
                                                  <th
                                                  style="padding-top: 15px;
                                                        vertical-align: top;
                                                        text-align: center;
                                                        margin 0px;
                                                        font-family: Helvetica;
                                                        font-size:14px;
                                                        font-weight: bold;
                                                        text-decoration: underline;
                                                        text-align: left;
                                                        word-wrap: break-word;"
                                                  colspan="2">Report Details</th>
                                                </tr>
                                            </thead>
                                            <tbody>
                                                <tr>
                                                  <td style="font-weight: bold;">Report
                                                  Date/Time:</td>
                                                  <td>15 Feb 2021 20:00</td>
                                                </tr>
                                                <tr>
                                                  <td style="font-weight: bold;">Report Name:</td>
                                                  <td>SARS-Cov-2 (COVID-19) PCR for Mrs. Anne
                                                  THOMPSON</td>
                                                </tr>
                                                <tr>
                                                  <td style="font-weight: bold;">Lab No:</td>
                                                  <td>DOO3Q978</td>
                                                </tr>
                                                <tr>
                                                  <td style="font-weight: bold;">Report Status:</td>
                                                  <td>Final</td>
                                                </tr>
                                                <tr>
                                                  <td style="font-weight: bold;">Diagnostice
                                                  Service(s):</td>
                                                  <td>Microbiology</td>
                                                </tr>
                                            </tbody>
                                        </table>
                                    </td>
                                </tr>
                            </tbody>
                        </table>
                        <h1
                            style=" width: 100%;
                            font-size: 17px;
                            font-weight: bold;
                            color: #000000;
                            margin-bottom: 5px;
                            margin-top: 0px;
                            border-bottom: 1px SOLID #000000;;
                            padding: 0px;
                            word-wrap: break-word;"
                            >Test Results</h1>
                        <table style="border-collapse:collapse;border-spacing:0;width:100%;">
                            <thead>
                                <tr>
                                    <th>
                                        <tr>
                                            <th
                                                style="padding-top: 15px;
                                    vertical-align: top;
                                    text-align: center;
                                    margin 0px;
                                    font-family: Helvetica;
                                    font-weight: bold;
                                    text-decoration: underline;
                                    text-align: left;
                                    word-wrap: break-word;"
                                                >Diagnostic Service</th>
                                            <th
                                                style="padding-top: 15px;
                                            vertical-align: top;
                                            text-align: center;
                                            margin 0px;
                                            font-family: Helvetica;
                                            font-weight: bold;
                                            text-decoration: underline;
                                            text-align: left;
                                            word-wrap: break-word;"
                                                >Test Name</th>
                                            <th
                                                style="padding-top: 15px;
                                    vertical-align: top;
                                    text-align: center;
                                    margin 0px;
                                    font-family: Helvetica;
                                    font-weight: bold;
                                    text-decoration: underline;
                                    text-align: left;
                                    word-wrap: break-word;"
                                                >Result</th>
                                            <th
                                                style="padding-top: 15px;
                                            vertical-align: top;
                                            text-align: center;
                                            margin 0px;
                                            font-family: Helvetica;
                                            font-weight: bold;
                                            text-decoration: underline;
                                            text-align: left;
                                            word-wrap: break-word;"
                                                >Collection Date/Time</th>
                                            <th
                                                style="padding-top: 15px;
                                    vertical-align: top;
                                    text-align: center;
                                    margin 0px;
                                    font-family: Helvetica;
                                    font-weight: bold;
                                    text-decoration: underline;
                                    text-align: left;
                                    word-wrap: break-word;"
                                                >Specimen Type</th>
                                            <th
                                                style="padding-top: 15px;
                                    vertical-align: top;
                                    text-align: center;
                                    margin 0px;
                                    font-family: Helvetica;
                                    font-weight: bold;
                                    text-decoration: underline;
                                    text-align: left;
                                    word-wrap: break-word;"
                                                >Primary Specimen Site</th>
                                            <th
                                                style="padding-top: 15px;
                                    vertical-align: top;
                                    text-align: center;
                                    margin 0px;
                                    font-family: Helvetica;
                                    font-weight: bold;
                                    text-decoration: underline;
                                    text-align: left;
                                    word-wrap: break-word;"
                                                >Collection Setting</th>
                                        </tr>
                                    </th>
                                </tr>
                            </thead>
                            <tbody>
                                <tbody>
                                    <tr>
                                        <td>Microbiology</td>
                                        <td>2019-Novel Coronavirus PCR</td>
                                        <td>Not Detected</td>
                                        <td>16 Mar 2020 10:40:00</td>
                                        <td>Swab</td>
                                        <td>Nasopharyngeal</td>
                                        <td>COVID HSC Assessment Clinic</td>
                                    </tr>
                                </tbody>
                            </tbody>
                        </table>
                        <p>
                            <a
                                href="https://github.com/AuDigitalHealth/ci-fhir-r4/tree/master/examples/DOO3Q978.pdf"
                                >Link to PDF document</a>
                        </p>
                    </div>

                </text>
                <identifier>
                    <type>
                        <coding>
                            <system value="http://terminology.hl7.org/CodeSystem/v2-0203"/>
                            <code value="FILL"/>
                            <display value="Filler Identifier"/>
                        </coding>
                    </type>
                    <system
                        value="http://ns.electronichealth.net.au/id/hpio-scoped/report/1.0/8003623233366565"/>
                    <value value="DOO3Q978"/>
                </identifier>
                <basedOn>
                    <reference value="urn:uuid:f606666a-23bf-4947-87ba-688824c12c08"/>
                </basedOn>
                <status value="final"/>
                <category>
                    <coding>
                        <system value="http://terminology.hl7.org/CodeSystem/v2-0074"/>
                        <code value="LAB"/>
                    </coding>
                </category>
                <category>
                    <coding>
                        <system value="http://terminology.hl7.org/CodeSystem/v2-0074"/>
                        <code value="MB"/>
                    </coding>
                </category>
                <code>
                    <coding>
                        <system value="http://loinc.org"/>
                        <code value="94309-2"/>
                    </coding>
                    <text value="2019-Novel Coronavirus PCR"/>
                </code>
                <subject>
                    <reference value="urn:uuid:7e5a8c0a-4e93-4bbb-a369-22572c8a0c3c"/>
                    <identifier>
                        <type>
                            <coding>
                                <system value="http://terminology.hl7.org/CodeSystem/v2-0203"/>
                                <code value="NI"/>
                                <display value="National unique individual identifier"/>
                            </coding>
                            <text value="IHI"/>
                        </type>
                        <system value="http://ns.electronichealth.net.au/id/hi/ihi/1.0"/>
                        <value value="8003608000228445"/>
                    </identifier>
                </subject>
                <effectiveDateTime value="2021-02-15T12:00:00+10:00"/>
                <issued value="2021-02-15T20:00:00+10:00"/>
                <performer>
                    <reference value="urn:uuid:a971cabe-bab5-4e12-b6cb-39f526d17093"/>
                </performer>
                <performer>
                    <reference value="urn:uuid:e0c5fa86-2184-4a5b-8c47-041422643440"/>
                </performer>
                <result>
                    <reference value="urn:uuid:21b82b5b-9acc-49c8-8634-2fdb7b18b283"/>
                </result>
                <presentedForm>
                    <contentType value="application/pdf"/>
                    <!-- Placeholder url value: Absolute URL to GitHub repository for attachment is provided as a workaround for demonstration purposes only  -->
                    <url value="pathresult.pdf"/>
                    <hash value="9F692CB7D03EE6FE8E0500740446262F55FBADBC"/>
                    <title value="2019-Novel Coronavirus PCR Report"/>
                </presentedForm>
            </DiagnosticReport>
        </resource>
    </entry>
    <!-- Observation covid-01-->
    <entry>
        <fullUrl value="urn:uuid:21b82b5b-9acc-49c8-8634-2fdb7b18b283"/>
        <resource>
            <Observation>
                <id value="covid-01"/>
                <status value="final"/>
                <category>
                    <coding>
                        <system value="http://terminology.hl7.org/CodeSystem/observation-category"/>
                        <code value="laboratory"/>
                    </coding>
                </category>
                <category>
                    <coding>
                        <system value="http://terminology.hl7.org/CodeSystem/v2-0074"/>
                        <code value="MB"/>
                    </coding>
                </category>
                <code>
                    <coding>
                        <system value="http://loinc.org"/>
                        <code value="94309-2"/>
                    </coding>
                    <text value="2019-Novel Coronavirus PCR"/>
                </code>
                <subject>
                    <reference value="urn:uuid:7e5a8c0a-4e93-4bbb-a369-22572c8a0c3c"/>
                    <identifier>
                        <type>
                            <coding>
                                <system value="http://terminology.hl7.org/CodeSystem/v2-0203"/>
                                <code value="NI"/>
                                <display value="National unique individual identifier"/>
                            </coding>
                            <text value="IHI"/>
                        </type>
                        <system value="http://ns.electronichealth.net.au/id/hi/ihi/1.0"/>
                        <value value="8003608000228445"/>
                    </identifier>
                </subject>
                <effectiveDateTime value="2021-02-15T12:00:00+10:00"/>
                <performer>
                    <reference value="urn:uuid:e0c5fa86-2184-4a5b-8c47-041422643440"/>
                </performer>
                <valueCodeableConcept>
                    <coding>
                        <system value="http://snomed.info/sct"/>
                        <code value="260415000"/>
                        <display value="Not detected"/>
                    </coding>
                    <text value="Not detected"/>
                </valueCodeableConcept>
                <note>
                    <text
                        value="Doomben Pathology QLD NATA/RCPA accreditation does not cover the SARS-CoV-2 (COVID-19) PCR test."
                    />
                </note>
                <note>
                    <text
                        value="This test is currently under evaluation and has not been fully validated. Failure to detect organism-specific nucleic acids does not exclude the presence of disease due to this agent."
                    />
                </note>
                <specimen>
                    <reference value="urn:uuid:d41ec8f5-c162-4f79-b763-77d143d9367e"/>
                </specimen>
            </Observation>
        </resource>
    </entry>
    <!-- Specimen naso-swab-01-->
    <entry>
        <fullUrl value="urn:uuid:d41ec8f5-c162-4f79-b763-77d143d9367e"/>
        <resource>
            <Specimen>
                <id value="naso-swab-01"/>
                <type>
                    <coding>
                        <system value="http://snomed.info/sct"/>
                        <code value="257261003"/>
                        <display value="Swab"/>
                    </coding>
                </type>
                <subject>
                    <reference value="urn:uuid:7e5a8c0a-4e93-4bbb-a369-22572c8a0c3c"/>
                    <identifier>
                        <type>
                            <coding>
                                <system value="http://terminology.hl7.org/CodeSystem/v2-0203"/>
                                <code value="NI"/>
                                <display value="National unique individual identifier"/>
                            </coding>
                            <text value="IHI"/>
                        </type>
                        <system value="http://ns.electronichealth.net.au/id/hi/ihi/1.0"/>
                        <value value="8003608000228445"/>
                    </identifier>
                </subject>
                <collection>
                    <collectedDateTime value="2021-02-15T12:00:00+10:00"/>
                    <bodySite>
                        <coding>
                            <system value="http://snomed.info/sct"/>
                            <code value="71836000"/>
                            <display value="Nasopharyngeal structure"/>
                        </coding>
                        <text value="Nasopharyngeal"/>
                    </bodySite>
                </collection>
                <note>
                    <text value="Collection Setting COVID HSC Assessment Clinic"/>
                </note>
            </Specimen>
        </resource>
    </entry>
    <!--ServiceRequest order-covid-01-->
    <entry>
        <fullUrl value="urn:uuid:f606666a-23bf-4947-87ba-688824c12c08"/>
        <resource>
            <ServiceRequest>
                <id value="order-covid-01"/>
                <identifier>
                    <type>
                        <coding>
                            <system value="http://terminology.hl7.org/CodeSystem/v2-0203"/>
                            <code value="PLAC"/>
                            <display value="Placer Identifier"/>
                        </coding>
                    </type>
                    <system
                        value="http://ns.electronichealth.net.au/id/hpio-scoped/order/1.0/8003626566699742"/>
                    <value value="123451"/>
                </identifier>
                <status value="completed"/>
                <intent value="order"/>
                <category>
                    <coding>
                        <system value="http://snomed.info/sct"/>
                        <code value="310074003"/>
                        <display value="Pathology service"/>
                    </coding>
                </category>
                <category>
                    <coding>
                        <system value="http://terminology.hl7.org/CodeSystem/v2-0074"/>
                        <code value="MB"/>
                    </coding>
                </category>
                <code>
                    <text value="2019-Novel Coronavirus PCR"/>
                </code>
                <subject>
                    <reference value="urn:uuid:7e5a8c0a-4e93-4bbb-a369-22572c8a0c3c"/>
                    <identifier>
                        <type>
                            <coding>
                                <system value="http://terminology.hl7.org/CodeSystem/v2-0203"/>
                                <code value="NI"/>
                                <display value="National unique individual identifier"/>
                            </coding>
                            <text value="IHI"/>
                        </type>
                        <system value="http://ns.electronichealth.net.au/id/hi/ihi/1.0"/>
                        <value value="8003608000228445"/>
                    </identifier>
                </subject>
                <requester>
                    <display value="Dr Greg Algregster (Algregster Medical Center QLD)"/>
                </requester>
            </ServiceRequest>
        </resource>
    </entry>
    <!--Patient mhr-anne-thompson-->
    <entry>
        <fullUrl value="urn:uuid:7e5a8c0a-4e93-4bbb-a369-22572c8a0c3c"/>
        <resource>
            <Patient>
                <id value="mhr-anne-thompson"/>
                <extension url="http://hl7.org.au/fhir/StructureDefinition/indigenous-status">
                    <valueCoding>
                        <system
                            value="https://healthterminologies.gov.au/fhir/CodeSystem/australian-indigenous-status-1"/>
                        <code value="1"/>
                        <display value="Aboriginal but not Torres Strait Islander origin"/>
                    </valueCoding>
                </extension>
                <identifier>
                    <type>
                        <coding>
                            <system value="http://terminology.hl7.org/CodeSystem/v2-0203"/>
                            <code value="NI"/>
                        </coding>
                        <text value="IHI"/>
                    </type>
                    <system value="http://ns.electronichealth.net.au/id/hi/ihi/1.0"/>
                    <value value="8003608000228445"/>
                </identifier>
                <identifier>
                    <type>
                        <coding>
                            <system value="http://terminology.hl7.org/CodeSystem/v2-0203"/>
                            <code value="MR"/>
                        </coding>
                    </type>
                    <system
                        value="http://ns.electronichealth.net.au/id/hpio-scoped/medicalrecord/1.0/8003621566684455"/>
                    <value value="123456"/>
                    <assigner>
                        <display value="Algregster Medical Center"/>
                    </assigner>
                </identifier>
                <name>
                    <use value="official"/>
                    <text value="Mrs. Anne Thompson"/>
                    <family value="Thompson"/>
                    <given value="Anne"/>
                    <prefix value="Mrs"/>
                </name>
                <gender value="female"/>
                <birthDate value="1978-10-11"> </birthDate>
                <communication>
                    <language>
                        <coding>
                            <system value="urn:ietf:bcp:47"/>
                            <code value="yub"/>
                        </coding>
                        <text value="Yugambal"/>
                    </language>
                </communication>
            </Patient>
        </resource>
    </entry>
    <!--PractitionerRole meyer-adam-microbiologist-->
    <entry>
        <fullUrl value="urn:uuid:a971cabe-bab5-4e12-b6cb-39f526d17093"/>
        <resource>
            <PractitionerRole>
                <id value="meyer-adam-microbiologist"/>
                <identifier>
                    <type>
                        <coding>
                            <system value="http://terminology.hl7.org/CodeSystem/v2-0203"/>
                            <code value="NPI"/>
                            <display value="National provider identifier"/>
                        </coding>
                        <text value="HPI-I"/>
                    </type>
                    <system value="http://ns.electronichealth.net.au/id/hi/hpii/1.0"/>
                    <value value="8003619900041630"/>
                </identifier>
                <practitioner>
                    <reference value="urn:uuid:21bf7f1d-f171-45ff-9f6d-3481f48ad468"/>
                </practitioner>
                <organization>
                    <reference value="urn:uuid:e0c5fa86-2184-4a5b-8c47-041422643440"/>
                </organization>
                <code>
                    <coding>
                        <system value="http://snomed.info/sct"/>
                        <code value="159138004"/>
                    </coding>
                    <text value="Microbiologist"/>
                </code>
                <telecom>
                    <system value="phone"/>
                    <value value="(07) 7010 3453"/>
                    <use value="work"/>
                </telecom>
            </PractitionerRole>
        </resource>
    </entry>
    <!--Practitioner meyer-adam-->
    <entry>
        <fullUrl value="urn:uuid:21bf7f1d-f171-45ff-9f6d-3481f48ad468"/>
        <resource>
            <Practitioner>
                <id value="21bf7f1d-f171-45ff-9f6d-3481f48ad468"/>
                <name>
                    <family value="MEYER"/>
                    <given value="Adam"/>
                    <prefix value="Dr."/>
                </name>
                <address>
                    <use value="work"/>
                    <line value="75 Hampden St"/>
                    <city value="DOOMBEN"/>
                    <state value="QLD"/>
                    <postalCode value="4007"/>
                    <country value="AU"/>
                </address>
            </Practitioner>
        </resource>
    </entry>
    <!--Organization metro-qld-path-lab-->
    <entry>
        <fullUrl value="urn:uuid:e0c5fa86-2184-4a5b-8c47-041422643440"/>
        <resource>
            <Organization>
                <id value="e0c5fa86-2184-4a5b-8c47-041422643440"/>
                <identifier>
                    <type>
                        <coding>
                            <system value="http://terminology.hl7.org.au/CodeSystem/v2-0203"/>
                            <code value="NOI"/>
                        </coding>
                        <text value="HPI-O"/>
                    </type>
                    <system value="http://ns.electronichealth.net.au/id/hi/hpio/1.0"/>
                    <value value="8003623233366565"/>
                </identifier>
                <identifier>
                    <type>
                        <coding>
                            <system value="http://terminology.hl7.org.au/CodeSystem/v2-0203"/>
                            <code value="NATAA"/>
                            <display value="NATA Accreditation Number"/>
                        </coding>
                        <text value="NATA Accreditation Number"/>
                    </type>
                    <system value="http://hl7.org.au/id/nata-accreditation"/>
                    <!--In Australia NATA numbers are an
        incremental number that have been incremented to 5 digits, this example uses a fictional
        NATA number from 100,000 + to ensure no conflict with real world values-->
                    <value value="100101"/>
                </identifier>
                <name value="Doomben Pathology QLD"/>
                <telecom>
                    <system value="email"/>
                    <value value="info@doombenpathlabs.example.com"/>
                    <use value="work"/>
                </telecom>
                <telecom>
                    <system value="phone"/>
                    <value value="(07) 5550 3427"/>
                    <use value="work"/>
                </telecom>
                <address>
                    <use value="work"/>
                    <type value="physical"/>
                    <line value="75 Hampden St"/>
                    <city value="DOOMBEN"/>
                    <state value="QLD"/>
                    <postalCode value="4007"/>
                    <country value="AU"/>
                </address>
            </Organization>
        </resource>
    </entry>
</Bundle>
