<?xml version="1.0" encoding="UTF-8"?>
<Bundle xmlns="http://hl7.org/fhir">
    <id value="po-01"/>
    <!--Bundle of the set of resources that make up the Personal Observations for Mr. Oliver Smith recorded by Mother at 6 months generated by MHR system on request by CIS via TBD-->
    <meta>
        <lastUpdated value="2022-11-28T11:01:00+10:00"/>
        <profile value="http://ns.electronichealth.net.au/fhir/StructureDefinition/dh-bundle-payload-1"/>
    </meta>
    <identifier>
        <system value="urn:ietf:rfc:3986"/>
        <value value="urn:uuid:69784b45-5069-4f41-9623-c67dd97d978a"/>
    </identifier>
    <type value="collection"/>
    <timestamp value="2022-11-28T11:01:00+10:00"/>
    <!--    PATIENT    -->
    <entry>
        <fullUrl value="urn:uuid:be41a758-d199-44ef-a91d-6f29a3cce26f"/>
        <resource>
            <Patient>
                <id value="mhr-smith-oliver"/>
                <extension url="http://hl7.org.au/fhir/StructureDefinition/indigenous-status">
                    <valueCoding>
                        <system
                            value="https://healthterminologies.gov.au/fhir/CodeSystem/australian-indigenous-status-1"/>
                        <code value="4"/>
                        <display value="Neither Aboriginal nor Torres Strait Islander origin"/>
                    </valueCoding>
                </extension>
                <identifier>
                    <use value="official"/>
                    <type>
                        <coding>
                            <system value="http://terminology.hl7.org/CodeSystem/v2-0203"/>
                            <code value="NI"/>
                            <display value="National unique individual identifier"/>
                        </coding>
                    </type>
                    <system value="http://ns.electronichealth.net.au/id/hi/ihi/1.0"/>
                    <value value="8003608833357361"/>
                </identifier>
                <name>
                    <use value="usual"/>
                    <family value="SMITH"/>
                    <given value="Oliver"/>
                    <prefix value="Mr."/>
                </name>
                <gender value="male"/>    
                <birthDate value="2019-02-14"/>
            </Patient>
        </resource>
    </entry>
    <!--    RELATEDPERSON (mhr-field-sally)   -->
    <entry>
        <fullUrl value="urn:uuid:8a2eeebc-c2dc-471b-aa05-3f9397d6daf0"/>
        <resource>
            <RelatedPerson>
                <id value="mhr-field-sally"/>
                <identifier>
                    <use value="official"/>
                    <type>
                        <coding>
                            <system value="http://terminology.hl7.org/CodeSystem/v2-0203"/>
                            <code value="NI"/>
                            <display value="National unique individual identifier"/>
                        </coding>
                    </type>
                    <system value="http://ns.electronichealth.net.au/id/hi/ihi/1.0"/>
                    <value value="8003608333563104"/>
                </identifier>
                <patient>
                    <reference value="urn:uuid:be41a758-d199-44ef-a91d-6f29a3cce26f"/>
                    <identifier>
                        <type>
                            <coding>
                                <system value="http://terminology.hl7.org/CodeSystem/v2-0203"/>
                                <code value="NI"/>
                                <display value="National unique individual identifier"/>
                            </coding>
                        </type>
                        <system value="http://ns.electronichealth.net.au/id/hi/ihi/1.0"/>
                        <value value="8003608833357361"/>
                    </identifier>
                </patient>
                <relationship>
                    <coding>
                        <system value="http://terminology.hl7.org/CodeSystem/v3-RoleCode"/>
                        <code value="MTH"/>
                        <display value="mother"/>
                    </coding>
                </relationship>
                <name>
                    <use value="usual"/>
                    <family value="FIELD"/>
                    <given value="Sally"/>
                    <prefix value="Ms."/>
                </name>
                <telecom>
                    <system value="phone"/>
                    <value value="0491 578 957"/>
                    <use value="mobile"/>
                </telecom>
                <gender value="female"/>    
            </RelatedPerson>
        </resource>
    </entry>
    <!--    OBSERVATION (headcircum-01) -->
    <entry>
        <fullUrl value="urn:uuid:8454a668-54ff-4bcc-9118-d78e1e6e8604"/>
        <resource>
            <Observation>
                <id value="headcircum-01"/>
                <status value="final"/>
                <category>
                    <coding>
                        <system value="http://terminology.hl7.org/CodeSystem/observation-category"/>
                        <code value="vital-signs"/>
                        <display value="Vital Signs"/>
                    </coding>
                    <text value="Vital Signs"/>
                </category>
                <code>
                    <coding>
                        <system value="http://loinc.org"/>
                        <code value="9843-4"/>
                        <display value="Head Occipital-frontal circumference"/>
                    </coding>
                    <coding>
                        <system value="http://snomed.info/sct"/>
                        <code value="363812007"/>
                    </coding>
                    <text value="Head Circumference"/>
                </code>
                <subject>
                    <reference value="urn:uuid:be41a758-d199-44ef-a91d-6f29a3cce26f"/>
                    <identifier>
                        <type>
                            <coding>
                                <system value="http://terminology.hl7.org/CodeSystem/v2-0203"/>
                                <code value="NI"/>
                                <display value="National unique individual identifier"/>
                            </coding>
                        </type>
                        <system value="http://ns.electronichealth.net.au/id/hi/ihi/1.0"/>
                        <value value="8003608833357361"/>
                    </identifier>
                </subject>
                <effectiveDateTime value="2019-08-14"/>
                <performer>
                    <reference value="urn:uuid:8a2eeebc-c2dc-471b-aa05-3f9397d6daf0"/>
                    <identifier>
                        <use value="official"/>
                        <type>
                            <coding>
                                <system value="http://terminology.hl7.org/CodeSystem/v2-0203"/>
                                <code value="NI"/>
                                <display value="National unique individual identifier"/>
                            </coding>
                        </type>
                        <system value="http://ns.electronichealth.net.au/id/hi/ihi/1.0"/>
                        <value value="8003608333563104"/>
                    </identifier>
                </performer>
                <valueQuantity>
                    <value value="42"/>
                    <unit value="cm"/>
                    <system value="http://unitsofmeasure.org"/>
                    <code value="cm"/>
                </valueQuantity>
            </Observation>
        </resource>
    </entry>
    <!--    OBSERVATION (bodyheight-01)    -->
    <entry>
        <fullUrl value="urn:uuid:23596933-9097-4931-87b2-1c850bb78780"/>
        <resource>
            <Observation>
                <id value="bodyheight-01"/>
                <status value="final"/>
                <category>
                    <coding>
                        <system value="http://terminology.hl7.org/CodeSystem/observation-category"/>
                        <code value="vital-signs"/>
                        <display value="Vital Signs"/>
                    </coding>
                    <text value="Vital Signs"/>
                </category>
                <code>
                    <coding>
                        <system value="http://loinc.org"/>
                        <code value="8302-2"/>
                        <display value="Body height"/>
                    </coding>
                    <coding>
                        <system value="http://snomed.info/sct"/>
                        <code value="50373000"/>
                    </coding>
                </code>
                <subject>
                    <reference value="urn:uuid:be41a758-d199-44ef-a91d-6f29a3cce26f"/>
                    <identifier>
                        <type>
                            <coding>
                                <system value="http://terminology.hl7.org/CodeSystem/v2-0203"/>
                                <code value="NI"/>
                                <display value="National unique individual identifier"/>
                            </coding>
                        </type>
                        <system value="http://ns.electronichealth.net.au/id/hi/ihi/1.0"/>
                        <value value="8003608833357361"/>
                    </identifier>
                </subject>
                <effectiveDateTime value="2019-08-14"/>
                <performer>
                    <reference value="urn:uuid:8a2eeebc-c2dc-471b-aa05-3f9397d6daf0"/>
                    <identifier>
                        <use value="official"/>
                        <type>
                            <coding>
                                <system value="http://terminology.hl7.org/CodeSystem/v2-0203"/>
                                <code value="NI"/>
                                <display value="National unique individual identifier"/>
                            </coding>
                        </type>
                        <system value="http://ns.electronichealth.net.au/id/hi/ihi/1.0"/>
                        <value value="8003608333563104"/>
                    </identifier>
                </performer>
                <valueQuantity>
                    <value value="67"/>
                    <unit value="cm"/>
                    <system value="http://unitsofmeasure.org"/>
                    <code value="cm"/>
                </valueQuantity>
            </Observation>
        </resource>
    </entry>
    <!--    OBSERVATION (bodyweight-01)    -->
    <entry>
        <fullUrl value="urn:uuid:052f2328-985a-44c2-a9d5-700c493ae43f"/>
        <resource>
            <Observation>
                <id value="bodyweight-01"/>
                <status value="final"/>
                <category>
                    <coding>
                        <system value="http://terminology.hl7.org/CodeSystem/observation-category"/>
                        <code value="vital-signs"/>
                        <display value="Vital Signs"/>
                    </coding>
                    <text value="Vital Signs"/>
                </category>
                <code>
                    <coding>
                        <system value="http://loinc.org"/>
                        <code value="29463-7"/>
                        <display value="Body weight"/>
                    </coding>
                    <coding>
                        <system value="http://snomed.info/sct"/>
                        <code value="27113001"/>
                    </coding>
                    <text value="weight"/>
                </code>
                <subject>
                    <reference value="urn:uuid:be41a758-d199-44ef-a91d-6f29a3cce26f"/>
                    <identifier>
                        <type>
                            <coding>
                                <system value="http://terminology.hl7.org/CodeSystem/v2-0203"/>
                                <code value="NI"/>
                                <display value="National unique individual identifier"/>
                            </coding>
                        </type>
                        <system value="http://ns.electronichealth.net.au/id/hi/ihi/1.0"/>
                        <value value="8003608833357361"/>
                    </identifier>
                </subject>
                <effectiveDateTime value="2019-08-14"/>
                <performer>
                    <reference value="urn:uuid:8a2eeebc-c2dc-471b-aa05-3f9397d6daf0"/>
                    <identifier>
                        <use value="official"/>
                        <type>
                            <coding>
                                <system value="http://terminology.hl7.org/CodeSystem/v2-0203"/>
                                <code value="NI"/>
                                <display value="National unique individual identifier"/>
                            </coding>
                        </type>
                        <system value="http://ns.electronichealth.net.au/id/hi/ihi/1.0"/>
                        <value value="8003608333563104"/>
                    </identifier>
                </performer>
                <valueQuantity>
                    <value value="7.9"/>
                    <unit value="kg"/>
                    <system value="http://unitsofmeasure.org"/>
                    <code value="kg"/>
                </valueQuantity>
            </Observation>
        </resource>
    </entry>
</Bundle>
